rgb_luminance,trials.thisRepN,trials.thisTrialN,trials.thisN,trials.thisIndex,patch_background.started,patch_background.stopped,patch_foreground.started,patch_foreground.stopped,patch_test.started,patch_test.stopped,key_response.keys,key_response.rt,key_response.started,key_response.stopped,text_task.started,text_task.stopped,text.started,text.stopped,participant,session,date,expName,psychopyVersion,frameRate,
0.35,0,0,0,2,33.16365239999868,None,33.16365239999868,None,33.16365239999868,None,right,3.3589780000002065,33.2392222999988,None,33.16365239999868,None,36.62386719999995,None,001,003,2021_Jan_21_2031,contrast,2020.2.10,41.54873749991804,
0.55,0,1,1,6,36.84021430000212,None,36.84021430000212,None,36.84021430000212,None,right,0.9138841999993019,36.915811400001985,None,36.84021430000212,None,37.8551695999995,None,001,003,2021_Jan_21_2031,contrast,2020.2.10,41.54873749991804,
0.6,0,2,2,7,38.080633900000976,None,38.080633900000976,None,38.080633900000976,None,right,0.699854200000118,38.15678140000091,None,38.080633900000976,None,38.88201520000075,None,001,003,2021_Jan_21_2031,contrast,2020.2.10,41.54873749991804,
0.45,0,3,3,4,39.101123200001894,None,39.101123200001894,None,39.101123200001894,None,right,0.7389900999987731,39.173802199999045,None,39.101123200001894,None,39.9394269000004,None,001,003,2021_Jan_21_2031,contrast,2020.2.10,41.54873749991804,
0.4,0,4,4,3,40.14252060000217,None,40.14252060000217,None,40.14252060000217,None,right,1.1640009000002465,40.21782080000048,None,40.14252060000217,None,41.40856650000205,None,001,003,2021_Jan_21_2031,contrast,2020.2.10,41.54873749991804,
0.3,0,5,5,1,41.626023100001476,None,41.626023100001476,None,41.626023100001476,None,right,1.4420536999969045,41.69871459999922,None,41.626023100001476,None,43.16656159999911,None,001,003,2021_Jan_21_2031,contrast,2020.2.10,41.54873749991804,
0.5,0,6,6,5,43.38712959999975,None,43.38712959999975,None,43.38712959999975,None,right,0.5737398000019311,43.461536499999056,None,43.38712959999975,None,44.06048910000027,None,001,003,2021_Jan_21_2031,contrast,2020.2.10,41.54873749991804,
0.25,0,7,7,0,44.2784161999989,None,44.2784161999989,None,44.2784161999989,None,left,0.8661057999997865,44.350954500001535,None,44.2784161999989,None,45.24150240000017,None,001,003,2021_Jan_21_2031,contrast,2020.2.10,41.54873749991804,
0.25,1,0,8,0,45.45952060000127,None,45.45952060000127,None,45.45952060000127,None,right,1.5205829000005906,45.5320180000017,None,45.45952060000127,None,47.07830540000214,None,001,003,2021_Jan_21_2031,contrast,2020.2.10,41.54873749991804,
0.55,1,1,9,6,47.29567859999952,None,47.29567859999952,None,47.29567859999952,None,right,0.6772576999974262,47.370977599999605,None,47.29567859999952,None,48.07307589999982,None,001,003,2021_Jan_21_2031,contrast,2020.2.10,41.54873749991804,
0.35,1,2,10,2,48.292772500000865,None,48.292772500000865,None,48.292772500000865,None,right,0.8720572000020184,48.366083799999615,None,48.292772500000865,None,49.26257710000209,None,001,003,2021_Jan_21_2031,contrast,2020.2.10,41.54873749991804,
0.4,1,3,11,3,49.482201599999826,None,49.482201599999826,None,49.482201599999826,None,right,0.5967452000004414,49.557070900002145,None,49.482201599999826,None,50.180443000001105,None,001,003,2021_Jan_21_2031,contrast,2020.2.10,41.54873749991804,
0.6,1,4,12,7,50.397634100001596,None,50.397634100001596,None,50.397634100001596,None,right,0.6814413000029163,50.476828300001216,None,50.397634100001596,None,51.18422510000164,None,001,003,2021_Jan_21_2031,contrast,2020.2.10,41.54873749991804,
0.45,1,5,13,4,51.4076750000022,None,51.4076750000022,None,51.4076750000022,None,right,0.4509741000001668,51.48323159999927,None,51.4076750000022,None,51.95898809999926,None,001,003,2021_Jan_21_2031,contrast,2020.2.10,41.54873749991804,
0.3,1,6,14,1,52.196082400001615,None,52.196082400001615,None,52.196082400001615,None,right,0.4696796999996877,52.24740060000113,None,52.196082400001615,None,52.74276040000041,None,001,003,2021_Jan_21_2031,contrast,2020.2.10,41.54873749991804,
0.5,1,7,15,5,52.961792900001456,None,52.961792900001456,None,52.961792900001456,None,right,0.4720054999997956,53.03655939999953,None,52.961792900001456,None,53.53587980000157,None,001,003,2021_Jan_21_2031,contrast,2020.2.10,41.54873749991804,
0.3,2,0,16,1,53.75475600000209,None,53.75475600000209,None,53.75475600000209,None,right,0.5482116999992286,53.83016620000126,None,53.75475600000209,None,54.40490399999908,None,001,003,2021_Jan_21_2031,contrast,2020.2.10,41.54873749991804,
0.6,2,1,17,7,54.62193480000133,None,54.62193480000133,None,54.62193480000133,None,right,0.7447348000023339,54.69713039999988,None,54.62193480000133,None,55.46765460000097,None,001,003,2021_Jan_21_2031,contrast,2020.2.10,41.54873749991804,
0.35,2,2,18,2,55.682553099999495,None,55.682553099999495,None,55.682553099999495,None,left,1.1000242000009166,55.75661179999952,None,55.682553099999495,None,56.880333000000974,None,001,003,2021_Jan_21_2031,contrast,2020.2.10,41.54873749991804,
0.25,2,3,19,0,57.101935599999706,None,57.101935599999706,None,57.101935599999706,None,left,0.6520510000009381,57.17969250000169,None,57.101935599999706,None,57.857220199999574,None,001,003,2021_Jan_21_2031,contrast,2020.2.10,41.54873749991804,
0.45,2,4,20,4,58.06426680000004,None,58.06426680000004,None,58.06426680000004,None,right,0.5532802999987325,58.139452899999014,None,58.06426680000004,None,58.71669330000077,None,001,003,2021_Jan_21_2031,contrast,2020.2.10,41.54873749991804,
0.4,2,5,21,3,58.93839759999901,None,58.93839759999901,None,58.93839759999901,None,right,0.5238764000023366,59.01333009999871,None,58.93839759999901,None,59.56208010000046,None,001,003,2021_Jan_21_2031,contrast,2020.2.10,41.54873749991804,
0.55,2,6,22,6,59.78249059999871,None,59.78249059999871,None,59.78249059999871,None,right,0.4823662000017066,59.856691100001626,None,59.78249059999871,None,60.36416540000209,None,001,003,2021_Jan_21_2031,contrast,2020.2.10,41.54873749991804,
0.5,2,7,23,5,60.57874950000041,None,60.57874950000041,None,60.57874950000041,None,right,0.495520000000397,60.65738699999929,None,60.57874950000041,None,61.181859899999836,None,001,003,2021_Jan_21_2031,contrast,2020.2.10,41.54873749991804,
0.3,3,0,24,1,61.40111590000015,None,61.40111590000015,None,61.40111590000015,None,right,0.5312945999976364,61.47639469999922,None,61.40111590000015,None,62.033335799998895,None,001,003,2021_Jan_21_2031,contrast,2020.2.10,41.54873749991804,
0.35,3,1,25,2,62.25243970000156,None,62.25243970000156,None,62.25243970000156,None,right,0.5173479999975825,62.32697940000071,None,62.25243970000156,None,62.86884370000189,None,001,003,2021_Jan_21_2031,contrast,2020.2.10,41.54873749991804,
0.45,3,2,26,4,63.08854350000183,None,63.08854350000183,None,63.08854350000183,None,right,0.42648039999767207,63.16190740000093,None,63.08854350000183,None,63.614481700002216,None,001,003,2021_Jan_21_2031,contrast,2020.2.10,41.54873749991804,
0.5,3,3,27,5,63.83235649999915,None,63.83235649999915,None,63.83235649999915,None,right,0.4774314000023878,63.90740189999997,None,63.83235649999915,None,64.41136570000162,None,001,003,2021_Jan_21_2031,contrast,2020.2.10,41.54873749991804,
0.25,3,4,28,0,64.62953109999944,None,64.62953109999944,None,64.62953109999944,None,right,1.1866656999991392,64.70319530000052,None,64.62953109999944,None,65.91580729999987,None,001,003,2021_Jan_21_2031,contrast,2020.2.10,41.54873749991804,
0.4,3,5,29,3,66.13988080000127,None,66.13988080000127,None,66.13988080000127,None,right,0.5963085000003048,66.21294490000219,None,66.13988080000127,None,66.83452229999966,None,001,003,2021_Jan_21_2031,contrast,2020.2.10,41.54873749991804,
0.6,3,6,30,7,67.05401429999984,None,67.05401429999984,None,67.05401429999984,None,right,0.5204386000004888,67.12779109999974,None,67.05401429999984,None,67.67346700000053,None,001,003,2021_Jan_21_2031,contrast,2020.2.10,41.54873749991804,
0.55,3,7,31,6,67.88937350000197,None,67.88937350000197,None,67.88937350000197,None,right,0.5037677000000258,67.96336810000139,None,67.88937350000197,None,68.49289159999898,None,001,003,2021_Jan_21_2031,contrast,2020.2.10,41.54873749991804,
0.5,4,0,32,5,68.70902719999867,None,68.70902719999867,None,68.70902719999867,None,right,0.44784549999894807,68.78274629999942,None,68.70902719999867,None,69.25473499999862,None,001,003,2021_Jan_21_2031,contrast,2020.2.10,41.54873749991804,
0.3,4,1,33,1,69.47417829999904,None,69.47417829999904,None,69.47417829999904,None,left,1.020275999999285,69.54959959999906,None,69.47417829999904,None,70.59454389999883,None,001,003,2021_Jan_21_2031,contrast,2020.2.10,41.54873749991804,
0.45,4,2,34,4,70.8143600000003,None,70.8143600000003,None,70.8143600000003,None,right,0.8376672999984294,70.88647010000204,None,70.8143600000003,None,71.7504403999992,None,001,003,2021_Jan_21_2031,contrast,2020.2.10,41.54873749991804,
0.4,4,3,35,3,71.96845419999954,None,71.96845419999954,None,71.96845419999954,None,right,0.6660980000015115,72.02580959999977,None,71.96845419999954,None,72.71658970000135,None,001,003,2021_Jan_21_2031,contrast,2020.2.10,41.54873749991804,
0.55,4,4,36,6,72.93480479999926,None,72.93480479999926,None,72.93480479999926,None,right,0.542984499999875,73.0077495000005,None,72.93480479999926,None,73.57606360000136,None,001,003,2021_Jan_21_2031,contrast,2020.2.10,41.54873749991804,
0.25,4,5,37,0,73.79398620000211,None,73.79398620000211,None,73.79398620000211,None,left,0.9999533000009251,73.87037559999953,None,73.79398620000211,None,74.8959606999997,None,001,003,2021_Jan_21_2031,contrast,2020.2.10,41.54873749991804,
0.35,4,6,38,2,75.11449509999875,None,75.11449509999875,None,75.11449509999875,None,right,1.0538301000015053,75.18936609999946,None,75.11449509999875,None,76.26959170000191,None,001,003,2021_Jan_21_2031,contrast,2020.2.10,41.54873749991804,
0.6,4,7,39,7,76.48915810000108,None,76.48915810000108,None,76.48915810000108,None,right,0.5988275000017893,76.5617564000022,None,76.48915810000108,None,77.18692379999993,None,001,003,2021_Jan_21_2031,contrast,2020.2.10,41.54873749991804,
0.55,5,0,40,6,77.40436210000189,None,77.40436210000189,None,77.40436210000189,None,right,0.6341758999988087,77.4781010000006,None,77.40436210000189,None,78.13741909999953,None,001,003,2021_Jan_21_2031,contrast,2020.2.10,41.54873749991804,
0.5,5,1,41,5,78.35558279999896,None,78.35558279999896,None,78.35558279999896,None,right,0.6649622999975691,78.43388400000185,None,78.35558279999896,None,79.1242702999989,None,001,003,2021_Jan_21_2031,contrast,2020.2.10,41.54873749991804,
0.25,5,2,42,0,79.34057949999988,None,79.34057949999988,None,79.34057949999988,None,left,1.249614099997416,79.4173793000009,None,79.34057949999988,None,80.69253300000128,None,001,003,2021_Jan_21_2031,contrast,2020.2.10,41.54873749991804,
0.45,5,3,43,4,80.89534819999972,None,80.89534819999972,None,80.89534819999972,None,right,0.6929689999997208,80.97019250000085,None,80.89534819999972,None,81.68760420000035,None,001,003,2021_Jan_21_2031,contrast,2020.2.10,41.54873749991804,
0.35,5,4,44,2,81.91003490000003,None,81.91003490000003,None,81.91003490000003,None,right,0.8307037999984459,81.98954450000019,None,81.91003490000003,None,82.84591290000026,None,001,003,2021_Jan_21_2031,contrast,2020.2.10,41.54873749991804,
0.4,5,5,45,3,83.07169140000042,None,83.07169140000042,None,83.07169140000042,None,right,0.5684126000014658,83.1458617999997,None,83.07169140000042,None,83.73792469999898,None,001,003,2021_Jan_21_2031,contrast,2020.2.10,41.54873749991804,
0.6,5,6,46,7,83.95981590000156,None,83.95981590000156,None,83.95981590000156,None,right,0.5424510000011651,84.03944720000072,None,83.95981590000156,None,84.60908660000132,None,001,003,2021_Jan_21_2031,contrast,2020.2.10,41.54873749991804,
0.3,5,7,47,1,84.82657680000193,None,84.82657680000193,None,84.82657680000193,None,left,1.6436452999987523,84.90092139999979,None,84.82657680000193,None,86.56946769999922,None,001,003,2021_Jan_21_2031,contrast,2020.2.10,41.54873749991804,
0.55,6,0,48,6,86.79137310000078,None,86.79137310000078,None,86.79137310000078,None,right,0.49685970000064117,86.84888050000154,None,86.79137310000078,None,87.37068619999991,None,001,003,2021_Jan_21_2031,contrast,2020.2.10,41.54873749991804,
0.3,6,1,49,1,87.58806270000059,None,87.58806270000059,None,87.58806270000059,None,left,1.8142938999990292,87.6618363000016,None,87.58806270000059,None,89.50249189999886,None,001,003,2021_Jan_21_2031,contrast,2020.2.10,41.54873749991804,
0.4,6,2,50,3,89.71836819999953,None,89.71836819999953,None,89.71836819999953,None,right,0.7019682999998622,89.7923555999987,None,89.71836819999953,None,90.52022980000038,None,001,003,2021_Jan_21_2031,contrast,2020.2.10,41.54873749991804,
0.35,6,3,51,2,90.74089829999866,None,90.74089829999866,None,90.74089829999866,None,right,0.37846799999897485,90.8165396000004,None,90.74089829999866,None,91.21942169999966,None,001,003,2021_Jan_21_2031,contrast,2020.2.10,41.54873749991804,
0.6,6,4,52,7,91.4423026000004,None,91.4423026000004,None,91.4423026000004,None,right,0.4429305999983626,91.51839979999932,None,91.4423026000004,None,91.9872163,None,001,003,2021_Jan_21_2031,contrast,2020.2.10,41.54873749991804,
0.25,6,5,53,0,92.19984889999978,None,92.19984889999978,None,92.19984889999978,None,right,0.49820480000198586,92.27526330000182,None,92.19984889999978,None,92.79895060000126,None,001,003,2021_Jan_21_2031,contrast,2020.2.10,41.54873749991804,
0.5,6,6,54,5,93.01649480000196,None,93.01649480000196,None,93.01649480000196,None,right,0.526627200000803,93.094248100002,None,93.01649480000196,None,93.64582979999977,None,001,003,2021_Jan_21_2031,contrast,2020.2.10,41.54873749991804,
0.45,6,7,55,4,93.86762280000039,None,93.86762280000039,None,93.86762280000039,None,right,0.5014405999972951,93.941127099999,None,93.86762280000039,None,94.46658960000059,None,001,003,2021_Jan_21_2031,contrast,2020.2.10,41.54873749991804,
0.25,7,0,56,0,94.68407540000044,None,94.68407540000044,None,94.68407540000044,None,right,1.3134752000005392,94.75739189999877,None,94.68407540000044,None,96.09568310000031,None,001,003,2021_Jan_21_2031,contrast,2020.2.10,41.54873749991804,
0.55,7,1,57,6,96.31195210000078,None,96.31195210000078,None,96.31195210000078,None,right,0.545005999996647,96.38436770000044,None,96.31195210000078,None,96.95438959999956,None,001,003,2021_Jan_21_2031,contrast,2020.2.10,41.54873749991804,
0.5,7,2,58,5,97.17336020000221,None,97.17336020000221,None,97.17336020000221,None,right,0.6141557000009925,97.24730110000019,None,97.17336020000221,None,97.88589870000214,None,001,003,2021_Jan_21_2031,contrast,2020.2.10,41.54873749991804,
0.4,7,3,59,3,98.11112850000063,None,98.11112850000063,None,98.11112850000063,None,right,0.8779040000008536,98.1870987000002,None,98.11112850000063,None,99.08998409999913,None,001,003,2021_Jan_21_2031,contrast,2020.2.10,41.54873749991804,
0.45,7,4,60,4,99.30995170000097,None,99.30995170000097,None,99.30995170000097,None,right,0.5071219999990717,99.38904579999871,None,99.30995170000097,None,99.92166680000082,None,001,003,2021_Jan_21_2031,contrast,2020.2.10,41.54873749991804,
0.3,7,5,61,1,100.14519440000004,None,100.14519440000004,None,100.14519440000004,None,right,2.546255699999165,100.21854399999938,None,100.14519440000004,None,102.7888860000021,None,001,003,2021_Jan_21_2031,contrast,2020.2.10,41.54873749991804,
0.35,7,6,62,2,103.01066260000152,None,103.01066260000152,None,103.01066260000152,None,right,0.8209253000022727,103.08507660000032,None,103.01066260000152,None,103.93091149999964,None,001,003,2021_Jan_21_2031,contrast,2020.2.10,41.54873749991804,
0.6,7,7,63,7,104.15165559999878,None,104.15165559999878,None,104.15165559999878,None,right,0.47906939999666065,104.22496780000074,None,104.15165559999878,None,104.7320163000004,None,001,003,2021_Jan_21_2031,contrast,2020.2.10,41.54873749991804,
0.35,8,0,64,2,104.95263740000155,None,104.95263740000155,None,104.95263740000155,None,right,0.9004988999986381,105.02766709999923,None,104.95263740000155,None,105.95252230000187,None,001,003,2021_Jan_21_2031,contrast,2020.2.10,41.54873749991804,
0.25,8,1,65,0,106.15774090000195,None,106.15774090000195,None,106.15774090000195,None,left,0.9260874999999942,106.2308524,None,106.15774090000195,None,107.18225900000107,None,001,003,2021_Jan_21_2031,contrast,2020.2.10,41.54873749991804,
0.3,8,2,66,1,107.40631539999958,None,107.40631539999958,None,107.40631539999958,None,left,0.7241524000019126,107.48401039999953,None,107.40631539999958,None,108.23463230000198,None,001,003,2021_Jan_21_2031,contrast,2020.2.10,41.54873749991804,
0.55,8,3,67,6,108.45103440000094,None,108.45103440000094,None,108.45103440000094,None,right,0.6417026000017358,108.52476780000143,None,108.45103440000094,None,109.19107549999899,None,001,003,2021_Jan_21_2031,contrast,2020.2.10,41.54873749991804,
0.4,8,4,68,3,109.41025010000158,None,109.41025010000158,None,109.41025010000158,None,right,1.0125727000013285,109.48657340000136,None,109.41025010000158,None,110.52481909999915,None,001,003,2021_Jan_21_2031,contrast,2020.2.10,41.54873749991804,
0.45,8,5,69,4,110.74328360000072,None,110.74328360000072,None,110.74328360000072,None,right,0.6236854999988282,110.81925930000216,None,110.74328360000072,None,111.46926240000175,None,001,003,2021_Jan_21_2031,contrast,2020.2.10,41.54873749991804,
0.5,8,6,70,5,111.69141370000216,None,111.69141370000216,None,111.69141370000216,None,right,0.5145312000022386,111.76957419999962,None,111.69141370000216,None,112.30982479999875,None,001,003,2021_Jan_21_2031,contrast,2020.2.10,41.54873749991804,
0.6,8,7,71,7,112.52784769999926,None,112.52784769999926,None,112.52784769999926,None,right,0.5504342999993241,112.6048062000009,None,112.52784769999926,None,113.17924409999978,None,001,003,2021_Jan_21_2031,contrast,2020.2.10,41.54873749991804,
0.35,9,0,72,2,113.39966400000048,None,113.39966400000048,None,113.39966400000048,None,right,0.3760703000007197,113.4752307000017,None,113.39966400000048,None,113.87605170000097,None,001,003,2021_Jan_21_2031,contrast,2020.2.10,41.54873749991804,
0.45,9,1,73,4,114.0773150999994,None,114.0773150999994,None,114.0773150999994,None,right,0.47465139999985695,114.15408060000118,None,114.0773150999994,None,114.65448060000199,None,001,003,2021_Jan_21_2031,contrast,2020.2.10,41.54873749991804,
0.6,9,2,74,7,114.87256340000022,None,114.87256340000022,None,114.87256340000022,None,right,0.42826480000076117,114.9504674000018,None,114.87256340000022,None,115.40391910000108,None,001,003,2021_Jan_21_2031,contrast,2020.2.10,41.54873749991804,
0.25,9,3,75,0,115.62809850000122,None,115.62809850000122,None,115.62809850000122,None,left,0.9882977999986906,115.70014889999948,None,115.62809850000122,None,116.7128918999988,None,001,003,2021_Jan_21_2031,contrast,2020.2.10,41.54873749991804,
0.4,9,4,76,3,116.93189379999967,None,116.93189379999967,None,116.93189379999967,None,right,0.5690086000031442,117.00753099999929,None,116.93189379999967,None,117.60179900000003,None,001,003,2021_Jan_21_2031,contrast,2020.2.10,41.54873749991804,
0.5,9,5,77,5,117.81974600000103,None,117.81974600000103,None,117.81974600000103,None,right,0.5724775000016962,117.89251929999955,None,117.81974600000103,None,118.49063590000151,None,001,003,2021_Jan_21_2031,contrast,2020.2.10,41.54873749991804,
0.3,9,6,78,1,118.7100188000004,None,118.7100188000004,None,118.7100188000004,None,right,1.1194570999978168,118.78415680000035,None,118.7100188000004,None,119.92838180000035,None,001,003,2021_Jan_21_2031,contrast,2020.2.10,41.54873749991804,
0.55,9,7,79,6,120.15126149999924,None,120.15126149999924,None,120.15126149999924,None,right,0.445158899998205,120.22694799999954,None,120.15126149999924,None,120.69715070000166,None,001,003,2021_Jan_21_2031,contrast,2020.2.10,41.54873749991804,
0.3,10,0,80,1,120.90949679999903,None,120.90949679999903,None,120.90949679999903,None,left,1.0220236999994086,120.9831266000001,None,120.90949679999903,None,122.03410090000034,None,001,003,2021_Jan_21_2031,contrast,2020.2.10,41.54873749991804,
0.4,10,1,81,3,122.25507850000213,None,122.25507850000213,None,122.25507850000213,None,right,1.0236216000012064,122.32992870000089,None,122.25507850000213,None,123.3801295000012,None,001,003,2021_Jan_21_2031,contrast,2020.2.10,41.54873749991804,
0.55,10,2,82,6,123.59613280000121,None,123.59613280000121,None,123.59613280000121,None,right,0.5280187000025762,123.66936150000038,None,123.59613280000121,None,124.22286679999888,None,001,003,2021_Jan_21_2031,contrast,2020.2.10,41.54873749991804,
0.35,10,3,83,2,124.44320700000026,None,124.44320700000026,None,124.44320700000026,None,right,0.6744194000020798,124.51530869999988,None,124.44320700000026,None,125.21422760000132,None,001,003,2021_Jan_21_2031,contrast,2020.2.10,41.54873749991804,
0.6,10,4,84,7,125.42977109999993,None,125.42977109999993,None,125.42977109999993,None,right,0.47780259999854024,125.505582400001,None,125.42977109999993,None,126.01203520000126,None,001,003,2021_Jan_21_2031,contrast,2020.2.10,41.54873749991804,
0.25,10,5,85,0,126.21413020000182,None,126.21413020000182,None,126.21413020000182,None,left,0.6542697000004409,126.28739240000141,None,126.21413020000182,None,126.96670979999908,None,001,003,2021_Jan_21_2031,contrast,2020.2.10,41.54873749991804,
0.45,10,6,86,4,127.18720509999912,None,127.18720509999912,None,127.18720509999912,None,right,0.47010100000261446,127.2629037000006,None,127.18720509999912,None,127.757205599999,None,001,003,2021_Jan_21_2031,contrast,2020.2.10,41.54873749991804,
0.5,10,7,87,5,127.98287899999923,None,127.98287899999923,None,127.98287899999923,None,right,0.455781399999978,128.04030830000193,None,127.98287899999923,None,128.52113069999905,None,001,003,2021_Jan_21_2031,contrast,2020.2.10,41.54873749991804,
0.4,11,0,88,3,128.74029810000138,None,128.74029810000138,None,128.74029810000138,None,right,0.3266655000006722,128.8154140000006,None,128.74029810000138,None,129.16549189999932,None,001,003,2021_Jan_21_2031,contrast,2020.2.10,41.54873749991804,
0.45,11,1,89,4,129.38894430000073,None,129.38894430000073,None,129.38894430000073,None,right,0.3678035999982967,129.46264729999893,None,129.38894430000073,None,129.8551195,None,001,003,2021_Jan_21_2031,contrast,2020.2.10,41.54873749991804,
0.55,11,2,90,6,130.07481740000003,None,130.07481740000003,None,130.07481740000003,None,right,0.3222812000021804,130.15357470000163,None,130.07481740000003,None,130.5011111999993,None,001,003,2021_Jan_21_2031,contrast,2020.2.10,41.54873749991804,
0.6,11,3,91,7,130.71953209999992,None,130.71953209999992,None,130.71953209999992,None,right,0.41933029999927385,130.79428910000206,None,130.71953209999992,None,131.24006699999882,None,001,003,2021_Jan_21_2031,contrast,2020.2.10,41.54873749991804,
0.25,11,4,92,0,131.45393110000077,None,131.45393110000077,None,131.45393110000077,None,left,0.8002899999992223,131.52783220000128,None,131.45393110000077,None,132.35285519999888,None,001,003,2021_Jan_21_2031,contrast,2020.2.10,41.54873749991804,
0.3,11,5,93,1,132.57119619999867,None,132.57119619999867,None,132.57119619999867,None,left,2.108488900001248,132.6430337999991,None,132.57119619999867,None,134.7763885000022,None,001,003,2021_Jan_21_2031,contrast,2020.2.10,41.54873749991804,
0.35,11,6,94,2,134.9958802000001,None,134.9958802000001,None,134.9958802000001,None,right,0.527037100000598,135.07035330000144,None,134.9958802000001,None,135.62307130000045,None,001,003,2021_Jan_21_2031,contrast,2020.2.10,41.54873749991804,
0.5,11,7,95,5,135.83847330000208,None,135.83847330000208,None,135.83847330000208,None,right,0.5311653999997361,135.91468960000202,None,135.83847330000208,None,136.4722208000021,None,001,003,2021_Jan_21_2031,contrast,2020.2.10,41.54873749991804,
0.35,12,0,96,2,136.69727090000015,None,136.69727090000015,None,136.69727090000015,None,right,1.1250022999993234,136.7751586000013,None,136.69727090000015,None,137.9271157000003,None,001,003,2021_Jan_21_2031,contrast,2020.2.10,41.54873749991804,
0.5,12,1,97,5,138.15364359999876,None,138.15364359999876,None,138.15364359999876,None,right,0.6774055999994744,138.22940039999958,None,138.15364359999876,None,138.93230119999862,None,001,003,2021_Jan_21_2031,contrast,2020.2.10,41.54873749991804,
0.45,12,2,98,4,139.1505115,None,139.1505115,None,139.1505115,None,right,0.776992800001608,139.22493580000082,None,139.1505115,None,140.0299765000018,None,001,003,2021_Jan_21_2031,contrast,2020.2.10,41.54873749991804,
0.4,12,3,99,3,140.24680530000114,None,140.24680530000114,None,140.24680530000114,None,right,0.5615628999985347,140.32046679999985,None,140.24680530000114,None,140.906593300002,None,001,003,2021_Jan_21_2031,contrast,2020.2.10,41.54873749991804,
0.3,12,4,100,1,141.12616120000166,None,141.12616120000166,None,141.12616120000166,None,right,0.8456514999998035,141.19789510000192,None,141.12616120000166,None,142.06890869999916,None,001,003,2021_Jan_21_2031,contrast,2020.2.10,41.54873749991804,
0.6,12,5,101,7,142.2808898000003,None,142.2808898000003,None,142.2808898000003,None,right,0.5518974999977218,142.3558223,None,142.2808898000003,None,142.9334959000007,None,001,003,2021_Jan_21_2031,contrast,2020.2.10,41.54873749991804,
0.55,12,6,102,6,143.14290660000188,None,143.14290660000188,None,143.14290660000188,None,right,0.552064599996811,143.21914540000216,None,143.14290660000188,None,143.79667379999955,None,001,003,2021_Jan_21_2031,contrast,2020.2.10,41.54873749991804,
0.25,12,7,103,0,144.0222192000001,None,144.0222192000001,None,144.0222192000001,None,left,1.0151017999996839,144.0753259000012,None,144.0222192000001,None,145.1202646999991,None,001,003,2021_Jan_21_2031,contrast,2020.2.10,41.54873749991804,
0.5,13,0,104,5,145.34016229999906,None,145.34016229999906,None,145.34016229999906,None,right,0.5778392000029271,145.4138813999998,None,145.34016229999906,None,146.02470149999863,None,001,003,2021_Jan_21_2031,contrast,2020.2.10,41.54873749991804,
0.6,13,1,105,7,146.2418413000014,None,146.2418413000014,None,146.2418413000014,None,right,0.41834300000118674,146.31520499999897,None,146.2418413000014,None,146.75770769999872,None,001,003,2021_Jan_21_2031,contrast,2020.2.10,41.54873749991804,
0.45,13,2,106,4,146.97971020000114,None,146.97971020000114,None,146.97971020000114,None,right,0.3942897000015364,147.05271580000044,None,146.97971020000114,None,147.47294809999948,None,001,003,2021_Jan_21_2031,contrast,2020.2.10,41.54873749991804,
0.4,13,3,107,3,147.68767730000036,None,147.68767730000036,None,147.68767730000036,None,right,0.3508739999997488,147.75995989999865,None,147.68767730000036,None,148.14112110000133,None,001,003,2021_Jan_21_2031,contrast,2020.2.10,41.54873749991804,
0.3,13,4,108,1,148.35790780000025,None,148.35790780000025,None,148.35790780000025,None,right,0.3533916999986104,148.43416190000062,None,148.35790780000025,None,148.81379150000066,None,001,003,2021_Jan_21_2031,contrast,2020.2.10,41.54873749991804,
0.25,13,5,109,0,149.03109770000083,None,149.03109770000083,None,149.03109770000083,None,left,0.81494549999843,149.10606410000037,None,149.03109770000083,None,149.9464627999987,None,001,003,2021_Jan_21_2031,contrast,2020.2.10,41.54873749991804,
0.55,13,6,110,6,150.17339189999984,None,150.17339189999984,None,150.17339189999984,None,right,0.8133553000006941,150.24664050000138,None,150.17339189999984,None,151.08663119999983,None,001,003,2021_Jan_21_2031,contrast,2020.2.10,41.54873749991804,
0.35,13,7,111,2,151.30353839999952,None,151.30353839999952,None,151.30353839999952,None,right,0.5196469000002253,151.377831400001,None,151.30353839999952,None,151.92092430000048,None,001,003,2021_Jan_21_2031,contrast,2020.2.10,41.54873749991804,
0.6,14,0,112,7,152.1349713999989,None,152.1349713999989,None,152.1349713999989,None,right,0.493232299999363,152.20901370000138,None,152.1349713999989,None,152.72753340000054,None,001,003,2021_Jan_21_2031,contrast,2020.2.10,41.54873749991804,
0.35,14,1,113,2,152.94342519999918,None,152.94342519999918,None,152.94342519999918,None,right,1.0873495999985607,153.0180547000018,None,152.94342519999918,None,154.1298773999988,None,001,003,2021_Jan_21_2031,contrast,2020.2.10,41.54873749991804,
0.55,14,2,114,6,154.34893210000155,None,154.34893210000155,None,154.34893210000155,None,right,0.6678726000027382,154.42261169999983,None,154.34893210000155,None,155.11618720000115,None,001,003,2021_Jan_21_2031,contrast,2020.2.10,41.54873749991804,
0.4,14,3,115,3,155.3355644000003,None,155.3355644000003,None,155.3355644000003,None,right,0.56673999999839,155.40880520000064,None,155.3355644000003,None,156.00081109999883,None,001,003,2021_Jan_21_2031,contrast,2020.2.10,41.54873749991804,
0.5,14,4,116,5,156.22351290000006,None,156.22351290000006,None,156.22351290000006,None,right,0.4944821999997657,156.29882970000108,None,156.22351290000006,None,156.8172024000014,None,001,003,2021_Jan_21_2031,contrast,2020.2.10,41.54873749991804,
0.25,14,5,117,0,157.0325582000005,None,157.0325582000005,None,157.0325582000005,None,left,0.8391114999976708,157.1062994999993,None,157.0325582000005,None,157.97189219999927,None,001,003,2021_Jan_21_2031,contrast,2020.2.10,41.54873749991804,
0.3,14,6,118,1,158.1758273000014,None,158.1758273000014,None,158.1758273000014,None,right,0.468952300001547,158.24976099999913,None,158.1758273000014,None,158.74367669999992,None,001,003,2021_Jan_21_2031,contrast,2020.2.10,41.54873749991804,
0.45,14,7,119,4,158.96096100000068,None,158.96096100000068,None,158.96096100000068,None,right,0.5065885000003618,159.0349313000006,None,158.96096100000068,None,159.5717423999995,None,001,003,2021_Jan_21_2031,contrast,2020.2.10,41.54873749991804,
0.5,15,0,120,5,159.77342320000025,None,159.77342320000025,None,159.77342320000025,None,right,0.5509939000003214,159.85190109999894,None,159.77342320000025,None,160.42836819999866,None,001,003,2021_Jan_21_2031,contrast,2020.2.10,41.54873749991804,
0.3,15,1,121,1,160.6459959999993,None,160.6459959999993,None,160.6459959999993,None,right,1.0778811000018322,160.7187197000021,None,160.6459959999993,None,161.8224747000022,None,001,003,2021_Jan_21_2031,contrast,2020.2.10,41.54873749991804,
0.25,15,2,122,0,162.0496927000022,None,162.0496927000022,None,162.0496927000022,None,left,0.6692901999995229,162.1001987999989,None,162.0496927000022,None,162.7958170999991,None,001,003,2021_Jan_21_2031,contrast,2020.2.10,41.54873749991804,
0.4,15,3,123,3,163.01534739999988,None,163.01534739999988,None,163.01534739999988,None,right,0.4525571999984095,163.0879488999999,None,163.01534739999988,None,163.56598080000185,None,001,003,2021_Jan_21_2031,contrast,2020.2.10,41.54873749991804,
0.6,15,4,124,7,163.78900760000033,None,163.78900760000033,None,163.78900760000033,None,right,0.40251310000166995,163.8643007999999,None,163.78900760000033,None,164.2939284000022,None,001,003,2021_Jan_21_2031,contrast,2020.2.10,41.54873749991804,
0.35,15,5,125,2,164.5093115999989,None,164.5093115999989,None,164.5093115999989,None,right,0.42336559999966994,164.58351570000013,None,164.5093115999989,None,165.03356050000002,None,001,003,2021_Jan_21_2031,contrast,2020.2.10,41.54873749991804,
0.45,15,6,126,4,165.25211150000177,None,165.25211150000177,None,165.25211150000177,None,right,0.39541879999887897,165.3281066999989,None,165.25211150000177,None,165.7486835999989,None,001,003,2021_Jan_21_2031,contrast,2020.2.10,41.54873749991804,
0.55,15,7,127,6,165.96586490000118,None,165.96586490000118,None,165.96586490000118,None,right,0.5111507999972673,166.04705850000028,None,165.96586490000118,None,166.58318119999967,None,001,003,2021_Jan_21_2031,contrast,2020.2.10,41.54873749991804,
0.6,16,0,128,7,166.7983337000005,None,166.7983337000005,None,166.7983337000005,None,right,0.39461210000081337,166.87233689999994,None,166.7983337000005,None,167.29277870000078,None,001,003,2021_Jan_21_2031,contrast,2020.2.10,41.54873749991804,
0.25,16,1,129,0,167.50795089999883,None,167.50795089999883,None,167.50795089999883,None,left,1.2416862999998557,167.58419409999988,None,167.50795089999883,None,168.85047180000038,None,001,003,2021_Jan_21_2031,contrast,2020.2.10,41.54873749991804,
0.4,16,2,130,3,169.0698807000008,None,169.0698807000008,None,169.0698807000008,None,right,0.5180223999996088,169.14322700000048,None,169.0698807000008,None,169.68600679999872,None,001,003,2021_Jan_21_2031,contrast,2020.2.10,41.54873749991804,
0.45,16,3,131,4,169.9040375000004,None,169.9040375000004,None,169.9040375000004,None,right,0.4565526000005775,169.97764209999877,None,169.9040375000004,None,170.45895989999917,None,001,003,2021_Jan_21_2031,contrast,2020.2.10,41.54873749991804,
0.35,16,4,132,2,170.67672790000142,None,170.67672790000142,None,170.67672790000142,None,right,1.2888046000007307,170.7499013000015,None,170.67672790000142,None,172.06418850000045,None,001,003,2021_Jan_21_2031,contrast,2020.2.10,41.54873749991804,
0.3,16,5,133,1,172.2688631000019,None,172.2688631000019,None,172.2688631000019,None,right,0.4538051000017731,172.343854499999,None,172.2688631000019,None,172.82381199999872,None,001,003,2021_Jan_21_2031,contrast,2020.2.10,41.54873749991804,
0.55,16,6,134,6,173.04323250000016,None,173.04323250000016,None,173.04323250000016,None,right,0.4259657000002335,173.11970110000038,None,173.04323250000016,None,173.57199110000147,None,001,003,2021_Jan_21_2031,contrast,2020.2.10,41.54873749991804,
0.5,16,7,135,5,173.77364429999943,None,173.77364429999943,None,173.77364429999943,None,right,0.4772439999978815,173.84755700000096,None,173.77364429999943,None,174.34944610000093,None,001,003,2021_Jan_21_2031,contrast,2020.2.10,41.54873749991804,
0.35,17,0,136,2,174.56798640000125,None,174.56798640000125,None,174.56798640000125,None,right,0.5738617000024533,174.64253820000158,None,174.56798640000125,None,175.2422613000017,None,001,003,2021_Jan_21_2031,contrast,2020.2.10,41.54873749991804,
0.6,17,1,137,7,175.46594069999992,None,175.46594069999992,None,175.46594069999992,None,right,0.6272539000019606,175.54194070000085,None,175.46594069999992,None,176.19307649999973,None,001,003,2021_Jan_21_2031,contrast,2020.2.10,41.54873749991804,
0.45,17,2,138,4,176.4161759000017,None,176.4161759000017,None,176.4161759000017,None,right,0.48992610000277637,176.4905331000009,None,176.4161759000017,None,177.0080650000018,None,001,003,2021_Jan_21_2031,contrast,2020.2.10,41.54873749991804,
0.3,17,3,139,1,177.22476780000216,None,177.22476780000216,None,177.22476780000216,None,right,1.8862017999999807,177.29726700000174,None,177.22476780000216,None,179.20989800000098,None,001,003,2021_Jan_21_2031,contrast,2020.2.10,41.54873749991804,
0.5,17,4,140,5,179.42763750000086,None,179.42763750000086,None,179.42763750000086,None,right,0.4714687999985472,179.501955300002,None,179.42763750000086,None,179.99821240000165,None,001,003,2021_Jan_21_2031,contrast,2020.2.10,41.54873749991804,
0.55,17,5,141,6,180.200770200001,None,180.200770200001,None,180.200770200001,None,right,0.42686830000093323,180.2778345000006,None,180.200770200001,None,180.73014350000085,None,001,003,2021_Jan_21_2031,contrast,2020.2.10,41.54873749991804,
0.25,17,6,142,0,180.94336380000095,None,180.94336380000095,None,180.94336380000095,None,left,0.9572375999996439,181.0192879999995,None,180.94336380000095,None,182.00184939999963,None,001,003,2021_Jan_21_2031,contrast,2020.2.10,41.54873749991804,
0.4,17,7,143,3,182.22863620000135,None,182.22863620000135,None,182.22863620000135,None,right,0.8682054999990214,182.30256100000042,None,182.22863620000135,None,183.19707019999987,None,001,003,2021_Jan_21_2031,contrast,2020.2.10,41.54873749991804,
0.3,18,0,144,1,183.4107241999991,None,183.4107241999991,None,183.4107241999991,None,right,0.5570557999999437,183.48468059999868,None,183.4107241999991,None,184.0659904000022,None,001,003,2021_Jan_21_2031,contrast,2020.2.10,41.54873749991804,
0.6,18,1,145,7,184.28533890000108,None,184.28533890000108,None,184.28533890000108,None,right,0.5418514000011783,184.36135170000125,None,184.28533890000108,None,184.92930500000148,None,001,003,2021_Jan_21_2031,contrast,2020.2.10,41.54873749991804,
0.35,18,2,146,2,185.1454378999988,None,185.1454378999988,None,185.1454378999988,None,right,0.5244431999999506,185.22344240000166,None,185.1454378999988,None,185.77382529999886,None,001,003,2021_Jan_21_2031,contrast,2020.2.10,41.54873749991804,
0.45,18,3,147,4,185.9922903000006,None,185.9922903000006,None,185.9922903000006,None,right,0.4414810000016587,186.0721405000004,None,185.9922903000006,None,186.5397739,None,001,003,2021_Jan_21_2031,contrast,2020.2.10,41.54873749991804,
0.5,18,4,148,5,186.7640930000016,None,186.7640930000016,None,186.7640930000016,None,right,0.44550709999748506,186.83811570000034,None,186.7640930000016,None,187.30930620000072,None,001,003,2021_Jan_21_2031,contrast,2020.2.10,41.54873749991804,
0.25,18,5,149,0,187.52481220000118,None,187.52481220000118,None,187.52481220000118,None,left,1.4789103000002797,187.6004896000013,None,187.52481220000118,None,189.10484780000115,None,001,003,2021_Jan_21_2031,contrast,2020.2.10,41.54873749991804,
0.55,18,6,150,6,189.3215550999994,None,189.3215550999994,None,189.3215550999994,None,right,0.7295266000000993,189.3944503999992,None,189.3215550999994,None,190.14995999999883,None,001,003,2021_Jan_21_2031,contrast,2020.2.10,41.54873749991804,
0.4,18,7,151,3,190.3682699000019,None,190.3682699000019,None,190.3682699000019,None,right,0.37206159999914235,190.4439994000022,None,190.3682699000019,None,190.84048360000088,None,001,003,2021_Jan_21_2031,contrast,2020.2.10,41.54873749991804,
0.45,19,0,152,4,191.0575882000012,None,191.0575882000012,None,191.0575882000012,None,right,0.37277950000134297,191.13443919999918,None,191.0575882000012,None,191.53273819999959,None,001,003,2021_Jan_21_2031,contrast,2020.2.10,41.54873749991804,
0.55,19,1,153,6,191.75083259999883,None,191.75083259999883,None,191.75083259999883,None,right,0.38197269999727723,191.8247517000018,None,191.75083259999883,None,192.23141930000202,None,001,003,2021_Jan_21_2031,contrast,2020.2.10,41.54873749991804,
0.25,19,2,154,0,192.44958419999966,None,192.44958419999966,None,192.44958419999966,None,right,2.471433099999558,192.52401829999872,None,192.44958419999966,None,195.02041950000057,None,001,003,2021_Jan_21_2031,contrast,2020.2.10,41.54873749991804,
0.35,19,3,155,2,195.2379273000006,None,195.2379273000006,None,195.2379273000006,None,right,0.7546564000003855,195.3129298999993,None,195.2379273000006,None,196.09401630000139,None,001,003,2021_Jan_21_2031,contrast,2020.2.10,41.54873749991804,
0.5,19,4,156,5,196.3123231999998,None,196.3123231999998,None,196.3123231999998,None,right,0.49581770000077086,196.38893480000115,None,196.3123231999998,None,196.9092438000007,None,001,003,2021_Jan_21_2031,contrast,2020.2.10,41.54873749991804,
0.6,19,5,157,7,197.12738779999927,None,197.12738779999927,None,197.12738779999927,None,right,0.4222504999997909,197.20264800000223,None,197.12738779999927,None,197.65197540000008,None,001,003,2021_Jan_21_2031,contrast,2020.2.10,41.54873749991804,
0.3,19,6,158,1,197.8540080999992,None,197.8540080999992,None,197.8540080999992,None,right,0.46230329999889364,197.92835360000026,None,197.8540080999992,None,198.4167387000016,None,001,003,2021_Jan_21_2031,contrast,2020.2.10,41.54873749991804,
0.4,19,7,159,3,198.64090869999927,None,198.64090869999927,None,198.64090869999927,None,right,0.45305590000134544,198.71650679999948,None,198.64090869999927,None,199.19409140000062,None,001,003,2021_Jan_21_2031,contrast,2020.2.10,41.54873749991804,
0.35,20,0,160,2,199.4170206000017,None,199.4170206000017,None,199.4170206000017,None,right,0.4734355000000505,199.48902459999954,None,199.4170206000017,None,199.98696729999938,None,001,003,2021_Jan_21_2031,contrast,2020.2.10,41.54873749991804,
0.6,20,1,161,7,200.1910076000022,None,200.1910076000022,None,200.1910076000022,None,right,0.405860599999869,200.26622589999897,None,200.1910076000022,None,200.69783010000174,None,001,003,2021_Jan_21_2031,contrast,2020.2.10,41.54873749991804,
0.4,20,2,162,3,200.92300049999903,None,200.92300049999903,None,200.92300049999903,None,right,0.4444541000011668,200.9965884000012,None,200.92300049999903,None,201.46600039999976,None,001,003,2021_Jan_21_2031,contrast,2020.2.10,41.54873749991804,
0.25,20,3,163,0,201.68859050000174,None,201.68859050000174,None,201.68859050000174,None,right,0.7871789999990142,201.76386750000165,None,201.68859050000174,None,202.57757100000163,None,001,003,2021_Jan_21_2031,contrast,2020.2.10,41.54873749991804,
0.45,20,4,164,4,202.79942429999937,None,202.79942429999937,None,202.79942429999937,None,right,0.37650220000068657,202.87814029999936,None,202.79942429999937,None,203.28106770000159,None,001,003,2021_Jan_21_2031,contrast,2020.2.10,41.54873749991804,
0.3,20,5,165,1,203.50022000000172,None,203.50022000000172,None,203.50022000000172,None,right,0.8062830000017129,203.57589200000075,None,203.50022000000172,None,204.40701379999882,None,001,003,2021_Jan_21_2031,contrast,2020.2.10,41.54873749991804,
0.55,20,6,166,6,204.6242913999995,None,204.6242913999995,None,204.6242913999995,None,right,0.5473297000025923,204.69751220000035,None,204.6242913999995,None,205.27180640000006,None,001,003,2021_Jan_21_2031,contrast,2020.2.10,41.54873749991804,
0.5,20,7,167,5,205.49380720000045,None,205.49380720000045,None,205.49380720000045,None,right,0.420862599999964,205.56768160000138,None,205.49380720000045,None,206.0136612999995,None,001,003,2021_Jan_21_2031,contrast,2020.2.10,41.54873749991804,
0.55,21,0,168,6,206.27003320000222,None,206.27003320000222,None,206.27003320000222,None,right,0.3748688999985461,206.37331170000107,None,206.27003320000222,None,206.77261720000024,None,001,003,2021_Jan_21_2031,contrast,2020.2.10,41.54873749991804,
0.5,21,1,169,5,206.98776429999998,None,206.98776429999998,None,206.98776429999998,None,right,0.42507520000071963,207.0635805999991,None,206.98776429999998,None,207.51277140000093,None,001,003,2021_Jan_21_2031,contrast,2020.2.10,41.54873749991804,
0.25,21,2,170,0,207.7303862000008,None,207.7303862000008,None,207.7303862000008,None,right,0.6587158000002091,207.80469599999924,None,207.7303862000008,None,208.49132660000032,None,001,003,2021_Jan_21_2031,contrast,2020.2.10,41.54873749991804,
0.6,21,3,171,7,208.71517279999898,None,208.71517279999898,None,208.71517279999898,None,right,0.39247120000072755,208.7894328000002,None,208.71517279999898,None,209.2069135999991,None,001,003,2021_Jan_21_2031,contrast,2020.2.10,41.54873749991804,
0.3,21,4,172,1,209.4271320000007,None,209.4271320000007,None,209.4271320000007,None,right,0.3979183999981615,209.4995342000002,None,209.4271320000007,None,209.925171400002,None,001,003,2021_Jan_21_2031,contrast,2020.2.10,41.54873749991804,
0.4,21,5,173,3,210.15189399999872,None,210.15189399999872,None,210.15189399999872,None,right,0.4679894999972021,210.22439999999915,None,210.15189399999872,None,210.7164221000021,None,001,003,2021_Jan_21_2031,contrast,2020.2.10,41.54873749991804,
0.35,21,6,174,2,210.93495149999944,None,210.93495149999944,None,210.93495149999944,None,right,0.4961985000009008,211.00789280000026,None,210.93495149999944,None,211.52859819999867,None,001,003,2021_Jan_21_2031,contrast,2020.2.10,41.54873749991804,
0.45,21,7,175,4,211.75073970000085,None,211.75073970000085,None,211.75073970000085,None,right,0.4706049999986135,211.82558110000173,None,211.75073970000085,None,212.32247869999992,None,001,003,2021_Jan_21_2031,contrast,2020.2.10,41.54873749991804,
0.35,22,0,176,2,212.54117440000118,None,212.54117440000118,None,212.54117440000118,None,right,0.5381643000000622,212.61396950000199,None,212.54117440000118,None,213.17708680000214,None,001,003,2021_Jan_21_2031,contrast,2020.2.10,41.54873749991804,
0.4,22,1,177,3,213.39326150000124,None,213.39326150000124,None,213.39326150000124,None,right,0.46912109999902896,213.47000509999998,None,213.39326150000124,None,213.96400890000223,None,001,003,2021_Jan_21_2031,contrast,2020.2.10,41.54873749991804,
0.5,22,2,178,5,214.1643511000002,None,214.1643511000002,None,214.1643511000002,None,right,0.543543600000703,214.23693990000174,None,214.1643511000002,None,214.80605890000152,None,001,003,2021_Jan_21_2031,contrast,2020.2.10,41.54873749991804,
0.6,22,3,179,7,215.02824930000133,None,215.02824930000133,None,215.02824930000133,None,right,0.49682839999877615,215.10201940000115,None,215.02824930000133,None,215.62592790000053,None,001,003,2021_Jan_21_2031,contrast,2020.2.10,41.54873749991804,
0.45,22,4,180,4,215.8486268000015,None,215.8486268000015,None,215.8486268000015,None,right,0.42849609999757376,215.92120530000102,None,215.8486268000015,None,216.37463610000123,None,001,003,2021_Jan_21_2031,contrast,2020.2.10,41.54873749991804,
0.25,22,5,181,0,216.59131790000174,None,216.59131790000174,None,216.59131790000174,None,left,1.3567614999992657,216.66279850000137,None,216.59131790000174,None,218.04924029999893,None,001,003,2021_Jan_21_2031,contrast,2020.2.10,41.54873749991804,
0.3,22,6,182,1,218.26435309999943,None,218.26435309999943,None,218.26435309999943,None,right,2.0447458000016923,218.34088650000194,None,218.26435309999943,None,220.41006349999952,None,001,003,2021_Jan_21_2031,contrast,2020.2.10,41.54873749991804,
0.55,22,7,183,6,220.62969919999887,None,220.62969919999887,None,220.62969919999887,None,right,0.5225371999986237,220.7029505999999,None,220.62969919999887,None,221.25157330000002,None,001,003,2021_Jan_21_2031,contrast,2020.2.10,41.54873749991804,
0.5,23,0,184,5,221.4676760000002,None,221.4676760000002,None,221.4676760000002,None,right,0.4773590000004333,221.54061999999976,None,221.4676760000002,None,222.04797609999878,None,001,003,2021_Jan_21_2031,contrast,2020.2.10,41.54873749991804,
0.55,23,1,185,6,222.26781380000102,None,222.26781380000102,None,222.26781380000102,None,right,0.42769509999925504,222.34260310000172,None,222.26781380000102,None,222.7956664000012,None,001,003,2021_Jan_21_2031,contrast,2020.2.10,41.54873749991804,
0.25,23,2,186,0,223.01904289999948,None,223.01904289999948,None,223.01904289999948,None,left,1.4615575000025274,223.09330409999893,None,223.01904289999948,None,224.58056130000114,None,001,003,2021_Jan_21_2031,contrast,2020.2.10,41.54873749991804,
0.3,23,3,187,1,224.80129400000078,None,224.80129400000078,None,224.80129400000078,None,right,0.677980699998443,224.87839359999998,None,224.80129400000078,None,225.58296770000015,None,001,003,2021_Jan_21_2031,contrast,2020.2.10,41.54873749991804,
0.35,23,4,188,2,225.79978850000043,None,225.79978850000043,None,225.79978850000043,None,right,0.8089342999992368,225.87485600000218,None,225.79978850000043,None,226.70863019999888,None,001,003,2021_Jan_21_2031,contrast,2020.2.10,41.54873749991804,
0.4,23,5,189,3,226.9271789000013,None,226.9271789000013,None,226.9271789000013,None,right,0.46745390000069165,226.99961170000097,None,226.9271789000013,None,227.4928258,None,001,003,2021_Jan_21_2031,contrast,2020.2.10,41.54873749991804,
0.6,23,6,190,7,227.70932900000116,None,227.70932900000116,None,227.70932900000116,None,right,0.5480591000014101,227.78586970000106,None,227.70932900000116,None,228.35822499999995,None,001,003,2021_Jan_21_2031,contrast,2020.2.10,41.54873749991804,
0.45,23,7,191,4,228.582867000001,None,228.582867000001,None,228.582867000001,None,right,0.4184739000011177,228.65790040000138,None,228.582867000001,None,229.10101099999883,None,001,003,2021_Jan_21_2031,contrast,2020.2.10,41.54873749991804,
0.6,24,0,192,7,229.31642510000165,None,229.31642510000165,None,229.31642510000165,None,right,0.4450682000024244,229.39140129999942,None,229.31642510000165,None,229.86185549999936,None,001,003,2021_Jan_21_2031,contrast,2020.2.10,41.54873749991804,
0.4,24,1,193,3,230.06755279999925,None,230.06755279999925,None,230.06755279999925,None,right,0.36944450000009965,230.11797569999908,None,230.06755279999925,None,230.51282150000043,None,001,003,2021_Jan_21_2031,contrast,2020.2.10,41.54873749991804,
0.3,24,2,194,1,230.72540650000155,None,230.72540650000155,None,230.72540650000155,None,right,0.39815449999878183,230.77428650000002,None,230.72540650000155,None,231.19633800000156,None,001,003,2021_Jan_21_2031,contrast,2020.2.10,41.54873749991804,
0.45,24,3,195,4,231.41486409999925,None,231.41486409999925,None,231.41486409999925,None,right,0.39155749999918044,231.4891021000003,None,231.41486409999925,None,231.9058370999992,None,001,003,2021_Jan_21_2031,contrast,2020.2.10,41.54873749991804,
0.5,24,4,196,5,232.1274259999991,None,232.1274259999991,None,232.1274259999991,None,right,0.39798180000070715,232.21129360000123,None,232.1274259999991,None,232.63364410000213,None,001,003,2021_Jan_21_2031,contrast,2020.2.10,41.54873749991804,
0.25,24,5,197,0,232.8494090000022,None,232.8494090000022,None,232.8494090000022,None,right,1.772312700002658,232.92449380000107,None,232.8494090000022,None,234.72175480000078,None,001,003,2021_Jan_21_2031,contrast,2020.2.10,41.54873749991804,
0.55,24,6,198,6,234.94287180000174,None,234.94287180000174,None,234.94287180000174,None,right,0.47143530000175815,235.01819120000073,None,234.94287180000174,None,235.51443949999884,None,001,003,2021_Jan_21_2031,contrast,2020.2.10,41.54873749991804,
0.35,24,7,199,2,235.73341240000082,None,235.73341240000082,None,235.73341240000082,None,right,0.3650392000017746,235.81056480000188,None,235.73341240000082,None,236.2011233000012,None,001,003,2021_Jan_21_2031,contrast,2020.2.10,41.54873749991804,
0.45,25,0,200,4,236.42587569999887,None,236.42587569999887,None,236.42587569999887,None,right,0.39173250000021653,236.4998048999987,None,236.42587569999887,None,236.91725829999996,None,001,003,2021_Jan_21_2031,contrast,2020.2.10,41.54873749991804,
0.5,25,1,201,5,237.1354265000009,None,237.1354265000009,None,237.1354265000009,None,right,0.39561390000017127,237.20838650000223,None,237.1354265000009,None,237.62843609999982,None,001,003,2021_Jan_21_2031,contrast,2020.2.10,41.54873749991804,
0.35,25,2,202,2,237.84465450000062,None,237.84465450000062,None,237.84465450000062,None,right,0.5003413999984332,237.91767040000195,None,237.84465450000062,None,238.44433740000022,None,001,003,2021_Jan_21_2031,contrast,2020.2.10,41.54873749991804,
0.4,25,3,203,3,238.66145229999893,None,238.66145229999893,None,238.66145229999893,None,right,0.3964157000009436,238.7334265999998,None,238.66145229999893,None,239.15579870000147,None,001,003,2021_Jan_21_2031,contrast,2020.2.10,41.54873749991804,
0.25,25,4,204,0,239.3742024000021,None,239.3742024000021,None,239.3742024000021,None,left,1.0152288999997836,239.4468364000022,None,239.3742024000021,None,240.48712130000058,None,001,003,2021_Jan_21_2031,contrast,2020.2.10,41.54873749991804,
0.55,25,5,205,6,240.70967070000188,None,240.70967070000188,None,240.70967070000188,None,right,0.48706510000192793,240.78471720000016,None,240.70967070000188,None,241.297622099999,None,001,003,2021_Jan_21_2031,contrast,2020.2.10,41.54873749991804,
0.6,25,6,206,7,241.5149053999994,None,241.5149053999994,None,241.5149053999994,None,right,0.39948269999877084,241.58801700000186,None,241.5149053999994,None,242.01304860000164,None,001,003,2021_Jan_21_2031,contrast,2020.2.10,41.54873749991804,
0.3,25,7,207,1,242.23857520000092,None,242.23857520000092,None,242.23857520000092,None,right,0.3451600000007602,242.31452139999965,None,242.23857520000092,None,242.68578890000208,None,001,003,2021_Jan_21_2031,contrast,2020.2.10,41.54873749991804,
0.45,26,0,208,4,242.9044701999992,None,242.9044701999992,None,242.9044701999992,None,right,0.34664189999966766,242.9773184000005,None,242.9044701999992,None,243.34756919999927,None,001,003,2021_Jan_21_2031,contrast,2020.2.10,41.54873749991804,
0.35,26,1,209,2,243.56697500000155,None,243.56697500000155,None,243.56697500000155,None,right,0.40315559999726247,243.64124979999906,None,243.56697500000155,None,244.0710676000017,None,001,003,2021_Jan_21_2031,contrast,2020.2.10,41.54873749991804,
0.4,26,2,210,3,244.28772179999942,None,244.28772179999942,None,244.28772179999942,None,right,0.37672480000037467,244.36392179999893,None,244.28772179999942,None,244.76477330000125,None,001,003,2021_Jan_21_2031,contrast,2020.2.10,41.54873749991804,
0.55,26,3,211,6,244.98453309999968,None,244.98453309999968,None,244.98453309999968,None,right,0.39747690000149305,245.05932290000055,None,244.98453309999968,None,245.48260160000063,None,001,003,2021_Jan_21_2031,contrast,2020.2.10,41.54873749991804,
0.5,26,4,212,5,245.7039791999996,None,245.7039791999996,None,245.7039791999996,None,right,0.3823518999997759,245.7794681000014,None,245.7039791999996,None,246.1875414999995,None,001,003,2021_Jan_21_2031,contrast,2020.2.10,41.54873749991804,
0.3,26,5,213,1,246.40892489999896,None,246.40892489999896,None,246.40892489999896,None,right,0.3470688000015798,246.4847789000014,None,246.40892489999896,None,246.85872820000077,None,001,003,2021_Jan_21_2031,contrast,2020.2.10,41.54873749991804,
0.25,26,6,214,0,247.07489239999995,None,247.07489239999995,None,247.07489239999995,None,left,0.9558481999993091,247.14764880000075,None,247.07489239999995,None,248.1289524999993,None,001,003,2021_Jan_21_2031,contrast,2020.2.10,41.54873749991804,
0.6,26,7,215,7,248.34461010000086,None,248.34461010000086,None,248.34461010000086,None,right,0.4753205999986676,248.41700010000204,None,248.34461010000086,None,248.91847549999875,None,001,003,2021_Jan_21_2031,contrast,2020.2.10,41.54873749991804,
0.35,27,0,216,2,249.13654410000163,None,249.13654410000163,None,249.13654410000163,None,right,0.32531359999848064,249.21113419999892,None,249.13654410000163,None,249.56193669999993,None,001,003,2021_Jan_21_2031,contrast,2020.2.10,41.54873749991804,
0.3,27,1,217,1,249.77994740000213,None,249.77994740000213,None,249.77994740000213,None,right,0.32707809999919846,249.85405779999928,None,249.77994740000213,None,250.20548129999952,None,001,003,2021_Jan_21_2031,contrast,2020.2.10,41.54873749991804,
0.25,27,2,218,0,250.42630579999968,None,250.42630579999968,None,250.42630579999968,None,right,0.36943459999747574,250.50014050000027,None,250.42630579999968,None,250.89493669999865,None,001,003,2021_Jan_21_2031,contrast,2020.2.10,41.54873749991804,
0.4,27,3,219,3,251.1106452999993,None,251.1106452999993,None,251.1106452999993,None,right,0.9144366000000446,251.1863314000002,None,251.1106452999993,None,252.12507240000195,None,001,003,2021_Jan_21_2031,contrast,2020.2.10,41.54873749991804,
0.55,27,4,220,6,252.3407416000009,None,252.3407416000009,None,252.3407416000009,None,right,0.4402647999995679,252.41258240000025,None,252.3407416000009,None,252.87764550000065,None,001,003,2021_Jan_21_2031,contrast,2020.2.10,41.54873749991804,
0.6,27,5,221,7,253.0964434000016,None,253.0964434000016,None,253.0964434000016,None,right,0.4434355000012147,253.17049730000144,None,253.0964434000016,None,253.6405870999988,None,001,003,2021_Jan_21_2031,contrast,2020.2.10,41.54873749991804,
0.5,27,6,222,5,253.85767770000166,None,253.85767770000166,None,253.85767770000166,None,right,0.3815595999985817,253.92926530000113,None,253.85767770000166,None,254.3355976999992,None,001,003,2021_Jan_21_2031,contrast,2020.2.10,41.54873749991804,
0.45,27,7,223,4,254.55540889999975,None,254.55540889999975,None,254.55540889999975,None,right,0.6210093999980018,254.63029129999995,None,254.55540889999975,None,255.2748677999989,None,001,003,2021_Jan_21_2031,contrast,2020.2.10,41.54873749991804,
0.55,28,0,224,6,255.4966155000002,None,255.4966155000002,None,255.4966155000002,None,right,0.6004930000017339,255.56956139999966,None,255.4966155000002,None,256.19639599999937,None,001,003,2021_Jan_21_2031,contrast,2020.2.10,41.54873749991804,
0.45,28,1,225,4,256.41426130000036,None,256.41426130000036,None,256.41426130000036,None,right,0.4997268000006443,256.48934480000025,None,256.41426130000036,None,257.0148915999998,None,001,003,2021_Jan_21_2031,contrast,2020.2.10,41.54873749991804,
0.4,28,2,226,3,257.2300189999987,None,257.2300189999987,None,257.2300189999987,None,right,0.4192144999979064,257.302337000001,None,257.2300189999987,None,257.74575900000127,None,001,003,2021_Jan_21_2031,contrast,2020.2.10,41.54873749991804,
0.6,28,3,227,7,257.960689800002,None,257.960689800002,None,257.960689800002,None,right,0.5018170999974245,258.0344006000014,None,257.960689800002,None,258.56075730000157,None,001,003,2021_Jan_21_2031,contrast,2020.2.10,41.54873749991804,
0.3,28,4,228,1,258.7838082999988,None,258.7838082999988,None,258.7838082999988,None,right,1.2932058000005782,258.8577117999994,None,258.7838082999988,None,260.1751102999988,None,001,003,2021_Jan_21_2031,contrast,2020.2.10,41.54873749991804,
0.35,28,5,229,2,260.39368390000163,None,260.39368390000163,None,260.39368390000163,None,right,0.47102819999781786,260.46643050000057,None,260.39368390000163,None,260.96322000000146,None,001,003,2021_Jan_21_2031,contrast,2020.2.10,41.54873749991804,
0.5,28,6,230,5,261.1825276999989,None,261.1825276999989,None,261.1825276999989,None,right,0.4215706999966642,261.25582049999866,None,261.1825276999989,None,261.70228489999863,None,001,003,2021_Jan_21_2031,contrast,2020.2.10,41.54873749991804,
0.25,28,7,231,0,261.9196262000005,None,261.9196262000005,None,261.9196262000005,None,right,0.8636965000005148,261.99432549999983,None,261.9196262000005,None,262.8825868999993,None,001,003,2021_Jan_21_2031,contrast,2020.2.10,41.54873749991804,
0.3,29,0,232,1,263.08780730000217,None,263.08780730000217,None,263.08780730000217,None,right,0.4025123999999778,263.1635215999995,None,263.08780730000217,None,263.59083490000194,None,001,003,2021_Jan_21_2031,contrast,2020.2.10,41.54873749991804,
0.45,29,1,233,4,263.81433950000064,None,263.81433950000064,None,263.81433950000064,None,right,0.4261304999999993,263.88952110000173,None,263.81433950000064,None,264.33982639999886,None,001,003,2021_Jan_21_2031,contrast,2020.2.10,41.54873749991804,
0.55,29,2,234,6,264.55412590000196,None,264.55412590000196,None,264.55412590000196,None,right,0.47684919999665,264.63254529999904,None,264.55412590000196,None,265.1347496999988,None,001,003,2021_Jan_21_2031,contrast,2020.2.10,41.54873749991804,
0.4,29,3,235,3,265.35349940000015,None,265.35349940000015,None,265.35349940000015,None,right,0.42790189999868744,265.4271120000012,None,265.35349940000015,None,265.8800140000021,None,001,003,2021_Jan_21_2031,contrast,2020.2.10,41.54873749991804,
0.35,29,4,236,2,266.10607190000155,None,266.10607190000155,None,266.10607190000155,None,right,0.49598129999867524,266.17831650000153,None,266.10607190000155,None,266.7010254000015,None,001,003,2021_Jan_21_2031,contrast,2020.2.10,41.54873749991804,
0.6,29,5,237,7,266.9242297000019,None,266.9242297000019,None,266.9242297000019,None,right,0.5238107000004675,266.9976491999987,None,266.9242297000019,None,267.54574460000003,None,001,003,2021_Jan_21_2031,contrast,2020.2.10,41.54873749991804,
0.25,29,6,238,0,267.7645869000007,None,267.7645869000007,None,267.7645869000007,None,left,1.9019682999969518,267.83967109999867,None,267.7645869000007,None,269.7669381000014,None,001,003,2021_Jan_21_2031,contrast,2020.2.10,41.54873749991804,
0.5,29,7,239,5,269.98653430000195,None,269.98653430000195,None,269.98653430000195,None,right,0.47465699999884237,270.0679578999989,None,269.98653430000195,None,270.56901370000196,None,001,003,2021_Jan_21_2031,contrast,2020.2.10,41.54873749991804,
