rgb_luminance,trials.thisRepN,trials.thisTrialN,trials.thisN,trials.thisIndex,patch_background.started,patch_background.stopped,patch_foreground.started,patch_foreground.stopped,patch_test.started,patch_test.stopped,key_response.keys,key_response.rt,key_response.started,key_response.stopped,text_task.started,text_task.stopped,text.started,text.stopped,participant,session,date,expName,psychopyVersion,frameRate,
0.4,0,0,0,3,24.70414620000156,None,24.70414620000156,None,24.70414620000156,None,right,3.7681933999992907,24.768641599999683,None,24.70414620000156,None,28.56796789999862,None,001,002,2021_Jan_21_2023,contrast,2020.2.10,42.55826226132895,
0.6,0,1,1,7,28.787004999998317,None,28.787004999998317,None,28.787004999998317,None,right,1.556766300000163,28.862951999999495,None,28.787004999998317,None,30.444241299999703,None,001,002,2021_Jan_21_2023,contrast,2020.2.10,42.55826226132895,
0.45,0,2,2,4,30.647337599999446,None,30.647337599999446,None,30.647337599999446,None,right,1.3709885999996914,30.720581699999457,None,30.647337599999446,None,32.116287199998624,None,001,002,2021_Jan_21_2023,contrast,2020.2.10,42.55826226132895,
0.25,0,3,3,0,32.33454150000034,None,32.33454150000034,None,32.33454150000034,None,right,8.442277399997693,32.40783309999824,None,32.33454150000034,None,40.87479979999989,None,001,002,2021_Jan_21_2023,contrast,2020.2.10,42.55826226132895,
0.3,0,4,4,1,41.09629430000132,None,41.09629430000132,None,41.09629430000132,None,left,3.7142310999988695,41.16933380000046,None,41.09629430000132,None,44.909400699998514,None,001,002,2021_Jan_21_2023,contrast,2020.2.10,42.55826226132895,
0.35,0,5,5,2,45.11540349999996,None,45.11540349999996,None,45.11540349999996,None,right,1.832123500000307,45.188607399999455,None,45.11540349999996,None,47.0458464000003,None,001,002,2021_Jan_21_2023,contrast,2020.2.10,42.55826226132895,
0.55,0,6,6,6,47.266995099998894,None,47.266995099998894,None,47.266995099998894,None,right,1.1619711999992433,47.34112200000163,None,47.266995099998894,None,48.52893960000074,None,001,002,2021_Jan_21_2023,contrast,2020.2.10,42.55826226132895,
0.5,0,7,7,5,48.73227319999933,None,48.73227319999933,None,48.73227319999933,None,right,0.7726179000019329,48.80659079999896,None,48.73227319999933,None,49.60331059999953,None,001,002,2021_Jan_21_2023,contrast,2020.2.10,42.55826226132895,
0.45,1,0,8,4,49.821336599998176,None,49.821336599998176,None,49.821336599998176,None,right,0.673210900000413,49.89439109999876,None,49.821336599998176,None,50.5946025000012,None,001,002,2021_Jan_21_2023,contrast,2020.2.10,42.55826226132895,
0.4,1,1,9,3,50.81171750000067,None,50.81171750000067,None,50.81171750000067,None,right,1.038782399999036,50.8871962000012,None,50.81171750000067,None,51.95076909999989,None,001,002,2021_Jan_21_2023,contrast,2020.2.10,42.55826226132895,
0.55,1,2,10,6,52.16807429999972,None,52.16807429999972,None,52.16807429999972,None,right,0.9805400000004738,52.24193359999845,None,52.16807429999972,None,53.246992299998965,None,001,002,2021_Jan_21_2023,contrast,2020.2.10,42.55826226132895,
0.6,1,3,11,7,53.464676299998246,None,53.464676299998246,None,53.464676299998246,None,right,0.7177266000035161,53.544092699998146,None,53.464676299998246,None,54.28526899999997,None,001,002,2021_Jan_21_2023,contrast,2020.2.10,42.55826226132895,
0.25,1,4,12,0,54.50463740000123,None,54.50463740000123,None,54.50463740000123,None,right,9.36103120000189,54.58414899999843,None,54.50463740000123,None,63.97035450000112,None,001,002,2021_Jan_21_2023,contrast,2020.2.10,42.55826226132895,
0.5,1,5,13,5,64.18673080000008,None,64.18673080000008,None,64.18673080000008,None,right,0.8541494999990391,64.26089280000087,None,64.18673080000008,None,65.14047239999854,None,001,002,2021_Jan_21_2023,contrast,2020.2.10,42.55826226132895,
0.35,1,6,14,2,65.3602032000017,None,65.3602032000017,None,65.3602032000017,None,right,0.9193349000015587,65.43448659999922,None,65.3602032000017,None,66.37884309999936,None,001,002,2021_Jan_21_2023,contrast,2020.2.10,42.55826226132895,
0.3,1,7,15,1,66.60432320000109,None,66.60432320000109,None,66.60432320000109,None,right,0.9443549999996321,66.67801790000158,None,66.60432320000109,None,67.64672770000107,None,001,002,2021_Jan_21_2023,contrast,2020.2.10,42.55826226132895,
0.4,2,0,16,3,67.86382840000078,None,67.86382840000078,None,67.86382840000078,None,right,0.9405261000028986,67.93677770000068,None,67.86382840000078,None,68.90266169999813,None,001,002,2021_Jan_21_2023,contrast,2020.2.10,42.55826226132895,
0.25,2,1,17,0,69.1227046999993,None,69.1227046999993,None,69.1227046999993,None,right,0.8668225999972492,69.19619779999994,None,69.1227046999993,None,70.08949280000161,None,001,002,2021_Jan_21_2023,contrast,2020.2.10,42.55826226132895,
0.6,2,2,18,7,70.30436579999878,None,70.30436579999878,None,70.30436579999878,None,right,0.7508913999990909,70.37874219999867,None,70.30436579999878,None,71.15551250000135,None,001,002,2021_Jan_21_2023,contrast,2020.2.10,42.55826226132895,
0.5,2,3,19,5,71.37485799999922,None,71.37485799999922,None,71.37485799999922,None,right,0.7256460999997216,71.45027299999856,None,71.37485799999922,None,72.20122489999994,None,001,002,2021_Jan_21_2023,contrast,2020.2.10,42.55826226132895,
0.3,2,4,20,1,72.41877110000132,None,72.41877110000132,None,72.41877110000132,None,right,3.455590100002155,72.49348330000066,None,72.41877110000132,None,75.97321200000079,None,001,002,2021_Jan_21_2023,contrast,2020.2.10,42.55826226132895,
0.45,2,5,21,4,76.1898958999991,None,76.1898958999991,None,76.1898958999991,None,right,1.042030699998577,76.2650106000001,None,76.1898958999991,None,77.33226379999905,None,001,002,2021_Jan_21_2023,contrast,2020.2.10,42.55826226132895,
0.55,2,6,22,6,77.54974840000068,None,77.54974840000068,None,77.54974840000068,None,right,0.7960526000024402,77.6230590999985,None,77.54974840000068,None,78.44523109999864,None,001,002,2021_Jan_21_2023,contrast,2020.2.10,42.55826226132895,
0.35,2,7,23,2,78.67921379999825,None,78.67921379999825,None,78.67921379999825,None,left,1.844380499998806,78.75427689999924,None,78.67921379999825,None,80.62421710000126,None,001,002,2021_Jan_21_2023,contrast,2020.2.10,42.55826226132895,
0.3,3,0,24,1,80.84769230000165,None,80.84769230000165,None,80.84769230000165,None,right,2.0907556999991357,80.92855449999843,None,80.84769230000165,None,83.04512850000174,None,001,002,2021_Jan_21_2023,contrast,2020.2.10,42.55826226132895,
0.35,3,1,25,2,83.26538979999896,None,83.26538979999896,None,83.26538979999896,None,right,0.751348899997538,83.34291179999855,None,83.26538979999896,None,84.11866419999933,None,001,002,2021_Jan_21_2023,contrast,2020.2.10,42.55826226132895,
0.55,3,2,26,6,84.33814310000162,None,84.33814310000162,None,84.33814310000162,None,right,0.4708033999995678,84.41353700000036,None,84.33814310000162,None,84.9094769000003,None,001,002,2021_Jan_21_2023,contrast,2020.2.10,42.55826226132895,
0.25,3,3,27,0,85.12955349999902,None,85.12955349999902,None,85.12955349999902,None,left,2.780799600001046,85.20561680000174,None,85.12955349999902,None,88.01103760000115,None,001,002,2021_Jan_21_2023,contrast,2020.2.10,42.55826226132895,
0.45,3,4,28,4,88.22874949999823,None,88.22874949999823,None,88.22874949999823,None,right,1.1721405999996932,88.3043859999998,None,88.22874949999823,None,89.50308629999927,None,001,002,2021_Jan_21_2023,contrast,2020.2.10,42.55826226132895,
0.4,3,5,29,3,89.71989210000174,None,89.71989210000174,None,89.71989210000174,None,right,0.8495957000013732,89.79283790000045,None,89.71989210000174,None,90.66660860000047,None,001,002,2021_Jan_21_2023,contrast,2020.2.10,42.55826226132895,
0.6,3,6,30,7,90.8841081999999,None,90.8841081999999,None,90.8841081999999,None,right,0.7674861999985296,90.95964019999883,None,90.8841081999999,None,91.75226309999925,None,001,002,2021_Jan_21_2023,contrast,2020.2.10,42.55826226132895,
0.5,3,7,31,5,91.97466409999834,None,91.97466409999834,None,91.97466409999834,None,right,0.951024400001188,92.05094939999981,None,91.97466409999834,None,93.0282546999988,None,001,002,2021_Jan_21_2023,contrast,2020.2.10,42.55826226132895,
0.5,4,0,32,5,93.24880359999952,None,93.24880359999952,None,93.24880359999952,None,right,0.8165262000002258,93.32154499999888,None,93.24880359999952,None,94.16351679999934,None,001,002,2021_Jan_21_2023,contrast,2020.2.10,42.55826226132895,
0.55,4,1,33,6,94.38251460000174,None,94.38251460000174,None,94.38251460000174,None,right,0.7999431999996887,94.4582029000012,None,94.38251460000174,None,95.2843228999991,None,001,002,2021_Jan_21_2023,contrast,2020.2.10,42.55826226132895,
0.6,4,2,34,7,95.50111190000098,None,95.50111190000098,None,95.50111190000098,None,right,0.6315618999979051,95.57493410000097,None,95.50111190000098,None,96.23260870000013,None,001,002,2021_Jan_21_2023,contrast,2020.2.10,42.55826226132895,
0.3,4,3,35,1,96.45406619999994,None,96.45406619999994,None,96.45406619999994,None,left,2.788654399999359,96.52898740000091,None,96.45406619999994,None,99.34251139999833,None,001,002,2021_Jan_21_2023,contrast,2020.2.10,42.55826226132895,
0.35,4,4,36,2,99.56057890000011,None,99.56057890000011,None,99.56057890000011,None,right,0.842933300002187,99.6326799999988,None,99.56057890000011,None,100.50120349999997,None,001,002,2021_Jan_21_2023,contrast,2020.2.10,42.55826226132895,
0.25,4,5,37,0,100.70269120000012,None,100.70269120000012,None,100.70269120000012,None,right,1.5432183000011719,100.77706380000018,None,100.70269120000012,None,102.34574359999897,None,001,002,2021_Jan_21_2023,contrast,2020.2.10,42.55826226132895,
0.45,4,6,38,4,102.56649439999819,None,102.56649439999819,None,102.56649439999819,None,right,0.5948291999993671,102.6249476999983,None,102.56649439999819,None,103.24494200000117,None,001,002,2021_Jan_21_2023,contrast,2020.2.10,42.55826226132895,
0.4,4,7,39,3,103.46350819999861,None,103.46350819999861,None,103.46350819999861,None,right,0.7482514000002993,103.53742689999854,None,103.46350819999861,None,104.31059019999884,None,001,002,2021_Jan_21_2023,contrast,2020.2.10,42.55826226132895,
0.55,5,0,40,6,104.53259790000084,None,104.53259790000084,None,104.53259790000084,None,right,0.5404052999983833,104.61158710000018,None,104.53259790000084,None,105.17810290000125,None,001,002,2021_Jan_21_2023,contrast,2020.2.10,42.55826226132895,
0.6,5,1,41,7,105.39713539999866,None,105.39713539999866,None,105.39713539999866,None,right,0.6238018000003649,105.4702612000001,None,105.39713539999866,None,106.12071619999915,None,001,002,2021_Jan_21_2023,contrast,2020.2.10,42.55826226132895,
0.25,5,2,42,0,106.34538850000172,None,106.34538850000172,None,106.34538850000172,None,left,2.4376661000023887,106.42154229999869,None,106.34538850000172,None,108.88490319999983,None,001,002,2021_Jan_21_2023,contrast,2020.2.10,42.55826226132895,
0.5,5,3,43,5,109.12101289999919,None,109.12101289999919,None,109.12101289999919,None,right,0.6699506000004476,109.19383989999915,None,109.12101289999919,None,109.88846829999966,None,001,002,2021_Jan_21_2023,contrast,2020.2.10,42.55826226132895,
0.3,5,4,44,1,110.10840810000082,None,110.10840810000082,None,110.10840810000082,None,right,0.9784627000008186,110.1813962999986,None,110.10840810000082,None,111.18470299999899,None,001,002,2021_Jan_21_2023,contrast,2020.2.10,42.55826226132895,
0.4,5,5,45,3,111.40845339999942,None,111.40845339999942,None,111.40845339999942,None,right,0.7235398999982863,111.48360999999932,None,111.40845339999942,None,112.23263660000157,None,001,002,2021_Jan_21_2023,contrast,2020.2.10,42.55826226132895,
0.45,5,6,46,4,112.45068739999988,None,112.45068739999988,None,112.45068739999988,None,right,0.6014246000013372,112.52597919999971,None,112.45068739999988,None,113.15266669999983,None,001,002,2021_Jan_21_2023,contrast,2020.2.10,42.55826226132895,
0.35,5,7,47,2,113.36918119999973,None,113.36918119999973,None,113.36918119999973,None,right,1.6223840000020573,113.44465109999874,None,113.36918119999973,None,115.09123629999885,None,001,002,2021_Jan_21_2023,contrast,2020.2.10,42.55826226132895,
0.3,6,0,48,1,115.30816739999864,None,115.30816739999864,None,115.30816739999864,None,left,0.9795345000020461,115.3833091000015,None,115.30816739999864,None,116.38757310000074,None,001,002,2021_Jan_21_2023,contrast,2020.2.10,42.55826226132895,
0.45,6,1,49,4,116.6191230000004,None,116.6191230000004,None,116.6191230000004,None,right,0.553127700000914,116.69559289999961,None,116.6191230000004,None,117.27340510000067,None,001,002,2021_Jan_21_2023,contrast,2020.2.10,42.55826226132895,
0.35,6,2,50,2,117.4912547999993,None,117.4912547999993,None,117.4912547999993,None,right,0.4627656999982719,117.54642729999978,None,117.4912547999993,None,118.03412670000034,None,001,002,2021_Jan_21_2023,contrast,2020.2.10,42.55826226132895,
0.5,6,3,51,5,118.25380159999986,None,118.25380159999986,None,118.25380159999986,None,right,0.6260050999990199,118.330436799999,None,118.25380159999986,None,118.98245010000028,None,001,002,2021_Jan_21_2023,contrast,2020.2.10,42.55826226132895,
0.55,6,4,52,6,119.20104169999831,None,119.20104169999831,None,119.20104169999831,None,right,0.6530114000015601,119.27468869999939,None,119.20104169999831,None,119.95345739999902,None,001,002,2021_Jan_21_2023,contrast,2020.2.10,42.55826226132895,
0.25,6,5,53,0,120.17270540000027,None,120.17270540000027,None,120.17270540000027,None,left,1.3759311999965576,120.24778929999957,None,120.17270540000027,None,121.64845870000136,None,001,002,2021_Jan_21_2023,contrast,2020.2.10,42.55826226132895,
0.4,6,6,54,3,121.86766319999879,None,121.86766319999879,None,121.86766319999879,None,right,0.49779169999965234,121.94091359999948,None,121.86766319999879,None,122.46321080000052,None,001,002,2021_Jan_21_2023,contrast,2020.2.10,42.55826226132895,
0.6,6,7,55,7,122.68685149999874,None,122.68685149999874,None,122.68685149999874,None,right,0.5730755000004137,122.75900080000065,None,122.68685149999874,None,123.35702939999828,None,001,002,2021_Jan_21_2023,contrast,2020.2.10,42.55826226132895,
0.6,7,0,56,7,123.57662870000058,None,123.57662870000058,None,123.57662870000058,None,right,0.5238828000001376,123.65194640000118,None,123.57662870000058,None,124.20145039999989,None,001,002,2021_Jan_21_2023,contrast,2020.2.10,42.55826226132895,
0.55,7,1,57,6,124.42114030000084,None,124.42114030000084,None,124.42114030000084,None,right,0.43239079999693786,124.49465749999945,None,124.42114030000084,None,124.9520721000008,None,001,002,2021_Jan_21_2023,contrast,2020.2.10,42.55826226132895,
0.35,7,2,58,2,125.17081329999928,None,125.17081329999928,None,125.17081329999928,None,right,1.950714300000982,125.24667190000036,None,125.17081329999928,None,127.22224389999974,None,001,002,2021_Jan_21_2023,contrast,2020.2.10,42.55826226132895,
0.5,7,3,59,5,127.4407816999992,None,127.4407816999992,None,127.4407816999992,None,right,0.4959601999980805,127.51278879999882,None,127.4407816999992,None,128.03302629999962,None,001,002,2021_Jan_21_2023,contrast,2020.2.10,42.55826226132895,
0.45,7,4,60,4,128.25217899999916,None,128.25217899999916,None,128.25217899999916,None,right,0.5536669000030088,128.32721970000057,None,128.25217899999916,None,128.9055823000017,None,001,002,2021_Jan_21_2023,contrast,2020.2.10,42.55826226132895,
0.25,7,5,61,0,129.12462360000063,None,129.12462360000063,None,129.12462360000063,None,right,0.49694040000031237,129.19899720000103,None,129.12462360000063,None,129.72310030000153,None,001,002,2021_Jan_21_2023,contrast,2020.2.10,42.55826226132895,
0.3,7,6,62,1,129.9395207000016,None,129.9395207000016,None,129.9395207000016,None,right,1.2956425999982457,130.0130640999996,None,129.9395207000016,None,131.33417950000148,None,001,002,2021_Jan_21_2023,contrast,2020.2.10,42.55826226132895,
0.4,7,7,63,3,131.55450040000142,None,131.55450040000142,None,131.55450040000142,None,right,0.5221069999970496,131.6287678000008,None,131.55450040000142,None,132.1770730999997,None,001,002,2021_Jan_21_2023,contrast,2020.2.10,42.55826226132895,
0.55,8,0,64,6,132.3979220000001,None,132.3979220000001,None,132.3979220000001,None,right,0.728771099998994,132.4741251000014,None,132.3979220000001,None,133.22884469999917,None,001,002,2021_Jan_21_2023,contrast,2020.2.10,42.55826226132895,
0.5,8,1,65,5,133.44628730000113,None,133.44628730000113,None,133.44628730000113,None,right,1.2503293999980087,133.52035149999938,None,133.44628730000113,None,134.79700070000035,None,001,002,2021_Jan_21_2023,contrast,2020.2.10,42.55826226132895,
0.4,8,2,66,3,135.00359430000026,None,135.00359430000026,None,135.00359430000026,None,right,0.7590983999980381,135.07688280000002,None,135.00359430000026,None,135.8597907000003,None,001,002,2021_Jan_21_2023,contrast,2020.2.10,42.55826226132895,
0.25,8,3,67,0,136.0861526000008,None,136.0861526000008,None,136.0861526000008,None,left,0.919198999999935,136.16421759999866,None,136.0861526000008,None,137.11006629999974,None,001,002,2021_Jan_21_2023,contrast,2020.2.10,42.55826226132895,
0.3,8,4,68,1,137.32438309999998,None,137.32438309999998,None,137.32438309999998,None,right,0.5977808999996341,137.3998713000001,None,137.32438309999998,None,138.02291239999977,None,001,002,2021_Jan_21_2023,contrast,2020.2.10,42.55826226132895,
0.6,8,5,69,7,138.24101230000088,None,138.24101230000088,None,138.24101230000088,None,right,0.626606099998753,138.31675529999848,None,138.24101230000088,None,138.96806460000153,None,001,002,2021_Jan_21_2023,contrast,2020.2.10,42.55826226132895,
0.45,8,6,70,4,139.18531219999932,None,139.18531219999932,None,139.18531219999932,None,right,0.4230427999973472,139.26213629999984,None,139.18531219999932,None,139.7099660999993,None,001,002,2021_Jan_21_2023,contrast,2020.2.10,42.55826226132895,
0.35,8,7,71,2,139.92975899999874,None,139.92975899999874,None,139.92975899999874,None,right,0.8372314999978698,140.00480329999846,None,139.92975899999874,None,140.86731259999942,None,001,002,2021_Jan_21_2023,contrast,2020.2.10,42.55826226132895,
0.55,9,0,72,6,141.0871769000005,None,141.0871769000005,None,141.0871769000005,None,right,0.6383318999978655,141.16080670000156,None,141.0871769000005,None,141.82436600000074,None,001,002,2021_Jan_21_2023,contrast,2020.2.10,42.55826226132895,
0.35,9,1,73,2,142.0439402000011,None,142.0439402000011,None,142.0439402000011,None,left,1.0525059000028705,142.11723899999924,None,142.0439402000011,None,143.19561299999987,None,001,002,2021_Jan_21_2023,contrast,2020.2.10,42.55826226132895,
0.3,9,2,74,1,143.41649450000114,None,143.41649450000114,None,143.41649450000114,None,left,1.4211949999989884,143.4914776000005,None,143.41649450000114,None,144.93868350000048,None,001,002,2021_Jan_21_2023,contrast,2020.2.10,42.55826226132895,
0.45,9,3,75,4,145.1596400999988,None,145.1596400999988,None,145.1596400999988,None,right,0.5015951999994286,145.2339350000002,None,145.1596400999988,None,145.76141189999908,None,001,002,2021_Jan_21_2023,contrast,2020.2.10,42.55826226132895,
0.6,9,4,76,7,145.9780780000001,None,145.9780780000001,None,145.9780780000001,None,right,0.47156790000008186,146.05054630000086,None,145.9780780000001,None,146.54721399999835,None,001,002,2021_Jan_21_2023,contrast,2020.2.10,42.55826226132895,
0.5,9,5,77,5,146.74787519999882,None,146.74787519999882,None,146.74787519999882,None,right,0.801119200001267,146.82228860000032,None,146.74787519999882,None,147.6488008999986,None,001,002,2021_Jan_21_2023,contrast,2020.2.10,42.55826226132895,
0.25,9,6,78,0,147.86728049999874,None,147.86728049999874,None,147.86728049999874,None,left,1.4484626999983448,147.9418098999995,None,147.86728049999874,None,149.41572299999825,None,001,002,2021_Jan_21_2023,contrast,2020.2.10,42.55826226132895,
0.4,9,7,79,3,149.63162960000045,None,149.63162960000045,None,149.63162960000045,None,left,1.4590078000001085,149.70485429999826,None,149.63162960000045,None,151.18855030000122,None,001,002,2021_Jan_21_2023,contrast,2020.2.10,42.55826226132895,
0.6,10,0,80,7,151.40206129999933,None,151.40206129999933,None,151.40206129999933,None,right,0.49983570000040345,151.47798759999932,None,151.40206129999933,None,152.0017200000002,None,001,002,2021_Jan_21_2023,contrast,2020.2.10,42.55826226132895,
0.45,10,1,81,4,152.2228959999993,None,152.2228959999993,None,152.2228959999993,None,right,1.9018008999992162,152.3013976000002,None,152.2228959999993,None,154.22906019999937,None,001,002,2021_Jan_21_2023,contrast,2020.2.10,42.55826226132895,
0.35,10,2,82,2,154.45044680000137,None,154.45044680000137,None,154.45044680000137,None,right,0.9000113000001875,154.52602380000098,None,154.45044680000137,None,155.45336339999994,None,001,002,2021_Jan_21_2023,contrast,2020.2.10,42.55826226132895,
0.55,10,3,83,6,155.6719090000006,None,155.6719090000006,None,155.6719090000006,None,right,0.5489342999971996,155.74681119999877,None,155.6719090000006,None,156.32008929999938,None,001,002,2021_Jan_21_2023,contrast,2020.2.10,42.55826226132895,
0.5,10,4,84,5,156.54048500000135,None,156.54048500000135,None,156.54048500000135,None,right,0.6211459999976796,156.620579800001,None,156.54048500000135,None,157.26832959999956,None,001,002,2021_Jan_21_2023,contrast,2020.2.10,42.55826226132895,
0.3,10,5,85,1,157.48815860000104,None,157.48815860000104,None,157.48815860000104,None,left,1.025074900000618,157.56406490000154,None,157.48815860000104,None,158.61879530000078,None,001,002,2021_Jan_21_2023,contrast,2020.2.10,42.55826226132895,
0.25,10,6,86,0,158.81876230000125,None,158.81876230000125,None,158.81876230000125,None,left,1.1256713000002492,158.8905537999999,None,158.81876230000125,None,160.04214530000172,None,001,002,2021_Jan_21_2023,contrast,2020.2.10,42.55826226132895,
0.4,10,7,87,3,160.26345460000084,None,160.26345460000084,None,160.26345460000084,None,right,0.6114216999994824,160.34030100000018,None,160.26345460000084,None,160.9758452999995,None,001,002,2021_Jan_21_2023,contrast,2020.2.10,42.55826226132895,
0.5,11,0,88,5,161.19932619999963,None,161.19932619999963,None,161.19932619999963,None,right,0.7780515000013111,161.27512579999893,None,161.19932619999963,None,162.0776396000001,None,001,002,2021_Jan_21_2023,contrast,2020.2.10,42.55826226132895,
0.45,11,1,89,4,162.303031200001,None,162.303031200001,None,162.303031200001,None,right,0.4314669000013964,162.37760120000166,None,162.303031200001,None,162.83612680000078,None,001,002,2021_Jan_21_2023,contrast,2020.2.10,42.55826226132895,
0.55,11,2,90,6,163.05546519999916,None,163.05546519999916,None,163.05546519999916,None,right,0.5802376999999979,163.13243460000012,None,163.05546519999916,None,163.73649229999864,None,001,002,2021_Jan_21_2023,contrast,2020.2.10,42.55826226132895,
0.35,11,3,91,2,163.95909459999893,None,163.95909459999893,None,163.95909459999893,None,right,4.0055119000026025,164.03349000000162,None,163.95909459999893,None,168.0647170000011,None,001,002,2021_Jan_21_2023,contrast,2020.2.10,42.55826226132895,
0.6,11,4,92,7,168.28331419999813,None,168.28331419999813,None,168.28331419999813,None,right,0.5079193999990821,168.3565043000017,None,168.28331419999813,None,168.8910247999993,None,001,002,2021_Jan_21_2023,contrast,2020.2.10,42.55826226132895,
0.25,11,5,93,0,169.11483040000167,None,169.11483040000167,None,169.11483040000167,None,left,0.8011021999991499,169.18835330000002,None,169.11483040000167,None,170.01434249999875,None,001,002,2021_Jan_21_2023,contrast,2020.2.10,42.55826226132895,
0.3,11,6,94,1,170.2396105000007,None,170.2396105000007,None,170.2396105000007,None,left,1.1101548000006005,170.29268299999967,None,170.2396105000007,None,171.42838539999866,None,001,002,2021_Jan_21_2023,contrast,2020.2.10,42.55826226132895,
0.4,11,7,95,3,171.64800630000173,None,171.64800630000173,None,171.64800630000173,None,right,2.040883500001655,171.72189620000063,None,171.64800630000173,None,173.78772670000035,None,001,002,2021_Jan_21_2023,contrast,2020.2.10,42.55826226132895,
0.6,12,0,96,7,174.00873729999876,None,174.00873729999876,None,174.00873729999876,None,right,0.3771669000016118,174.0836233000009,None,174.00873729999876,None,174.4851794999995,None,001,002,2021_Jan_21_2023,contrast,2020.2.10,42.55826226132895,
0.3,12,1,97,1,174.68622790000154,None,174.68622790000154,None,174.68622790000154,None,right,0.3719167999988713,174.76249290000123,None,174.68622790000154,None,175.15967190000083,None,001,002,2021_Jan_21_2023,contrast,2020.2.10,42.55826226132895,
0.55,12,2,98,6,175.37660870000036,None,175.37660870000036,None,175.37660870000036,None,right,0.7282343000006222,175.4505953000007,None,175.37660870000036,None,176.2064461000009,None,001,002,2021_Jan_21_2023,contrast,2020.2.10,42.55826226132895,
0.45,12,3,99,4,176.427644899999,None,176.427644899999,None,176.427644899999,None,right,1.1727568999995128,176.50279420000152,None,176.427644899999,None,177.7009767999989,None,001,002,2021_Jan_21_2023,contrast,2020.2.10,42.55826226132895,
0.4,12,4,100,3,177.921983799999,None,177.921983799999,None,177.921983799999,None,right,1.6708386999998766,177.99725620000027,None,177.921983799999,None,179.6928239000008,None,001,002,2021_Jan_21_2023,contrast,2020.2.10,42.55826226132895,
0.35,12,5,101,2,179.91399760000058,None,179.91399760000058,None,179.91399760000058,None,left,0.5971673000021838,179.98786960000143,None,179.91399760000058,None,180.6112858000015,None,001,002,2021_Jan_21_2023,contrast,2020.2.10,42.55826226132895,
0.5,12,6,102,5,180.8322412999987,None,180.8322412999987,None,180.8322412999987,None,right,0.7250583999993978,180.9080537000009,None,180.8322412999987,None,181.65834220000033,None,001,002,2021_Jan_21_2023,contrast,2020.2.10,42.55826226132895,
0.25,12,7,103,0,181.87780040000143,None,181.87780040000143,None,181.87780040000143,None,left,1.0753946000004362,181.9533530000008,None,181.87780040000143,None,183.0540336999984,None,001,002,2021_Jan_21_2023,contrast,2020.2.10,42.55826226132895,
0.3,13,0,104,1,183.27306959999987,None,183.27306959999987,None,183.27306959999987,None,left,0.7908085000017309,183.34887869999875,None,183.27306959999987,None,184.16588129999946,None,001,002,2021_Jan_21_2023,contrast,2020.2.10,42.55826226132895,
0.6,13,1,105,7,184.38444140000138,None,184.38444140000138,None,184.38444140000138,None,right,0.5820979999989504,184.45748430000094,None,184.38444140000138,None,185.06488819999868,None,001,002,2021_Jan_21_2023,contrast,2020.2.10,42.55826226132895,
0.35,13,2,106,2,185.28236910000123,None,185.28236910000123,None,185.28236910000123,None,right,1.4989763999983552,185.3598052999987,None,185.28236910000123,None,186.88380329999927,None,001,002,2021_Jan_21_2023,contrast,2020.2.10,42.55826226132895,
0.5,13,3,107,5,187.0987582000016,None,187.0987582000016,None,187.0987582000016,None,right,0.8991781000004266,187.1748066,None,187.0987582000016,None,188.09854970000015,None,001,002,2021_Jan_21_2023,contrast,2020.2.10,42.55826226132895,
0.4,13,4,108,3,188.3121500999987,None,188.3121500999987,None,188.3121500999987,None,right,1.6922242000000551,188.38629370000126,None,188.3121500999987,None,190.10474199999953,None,001,002,2021_Jan_21_2023,contrast,2020.2.10,42.55826226132895,
0.55,13,5,109,6,190.32791709999947,None,190.32791709999947,None,190.32791709999947,None,right,0.6326193999993848,190.40319090000048,None,190.32791709999947,None,191.06145679999827,None,001,002,2021_Jan_21_2023,contrast,2020.2.10,42.55826226132895,
0.25,13,6,110,0,191.27784469999824,None,191.27784469999824,None,191.27784469999824,None,left,0.6959755000025325,191.35221570000067,None,191.27784469999824,None,192.07408950000172,None,001,002,2021_Jan_21_2023,contrast,2020.2.10,42.55826226132895,
0.45,13,7,111,4,192.2951589000004,None,192.2951589000004,None,192.2951589000004,None,right,0.6816366000020935,192.37270200000057,None,192.2951589000004,None,193.08073800000057,None,001,002,2021_Jan_21_2023,contrast,2020.2.10,42.55826226132895,
0.55,14,0,112,6,193.30013060000056,None,193.30013060000056,None,193.30013060000056,None,right,0.5955715999989479,193.37297079999917,None,193.30013060000056,None,193.99280739999813,None,001,002,2021_Jan_21_2023,contrast,2020.2.10,42.55826226132895,
0.25,14,1,113,0,194.20998379999946,None,194.20998379999946,None,194.20998379999946,None,left,1.8706744000010076,194.2861378000016,None,194.20998379999946,None,196.1825546,None,001,002,2021_Jan_21_2023,contrast,2020.2.10,42.55826226132895,
0.3,14,2,114,1,196.4023473999987,None,196.4023473999987,None,196.4023473999987,None,right,1.8836048000011942,196.47599949999858,None,196.4023473999987,None,198.3848263,None,001,002,2021_Jan_21_2023,contrast,2020.2.10,42.55826226132895,
0.5,14,3,115,5,198.60304520000136,None,198.60304520000136,None,198.60304520000136,None,right,0.7198882000011508,198.68415660000028,None,198.60304520000136,None,199.43198729999858,None,001,002,2021_Jan_21_2023,contrast,2020.2.10,42.55826226132895,
0.35,14,4,116,2,199.66405099999974,None,199.66405099999974,None,199.66405099999974,None,left,0.8615943000004336,199.72808820000137,None,199.66405099999974,None,200.61623999999938,None,001,002,2021_Jan_21_2023,contrast,2020.2.10,42.55826226132895,
0.6,14,5,117,7,200.8335842000015,None,200.8335842000015,None,200.8335842000015,None,right,0.6299866999979713,200.8985732000001,None,200.8335842000015,None,201.55952750000142,None,001,002,2021_Jan_21_2023,contrast,2020.2.10,42.55826226132895,
0.45,14,6,118,4,201.76358579999942,None,201.76358579999942,None,201.76358579999942,None,right,0.9786858999977994,201.83662679999907,None,201.76358579999942,None,202.84342549999928,None,001,002,2021_Jan_21_2023,contrast,2020.2.10,42.55826226132895,
0.4,14,7,119,3,203.07199620000029,None,203.07199620000029,None,203.07199620000029,None,right,2.9257309999993595,203.12989369999923,None,203.07199620000029,None,206.0895773000011,None,001,002,2021_Jan_21_2023,contrast,2020.2.10,42.55826226132895,
0.5,15,0,120,5,206.28583230000004,None,206.28583230000004,None,206.28583230000004,None,right,0.8557927000001655,206.34377229999882,None,206.28583230000004,None,207.22707779999837,None,001,002,2021_Jan_21_2023,contrast,2020.2.10,42.55826226132895,
0.4,15,1,121,3,207.45704489999844,None,207.45704489999844,None,207.45704489999844,None,right,0.6661880999999994,207.51769269999932,None,207.45704489999844,None,208.21502659999896,None,001,002,2021_Jan_21_2023,contrast,2020.2.10,42.55826226132895,
0.6,15,2,122,7,208.4173023000003,None,208.4173023000003,None,208.4173023000003,None,right,0.9200946999990265,208.47195880000072,None,208.4173023000003,None,209.4204807999995,None,001,002,2021_Jan_21_2023,contrast,2020.2.10,42.55826226132895,
0.55,15,3,123,6,209.65141210000002,None,209.65141210000002,None,209.65141210000002,None,right,0.8568923999991966,209.71884829999908,None,209.65141210000002,None,210.60532420000163,None,001,002,2021_Jan_21_2023,contrast,2020.2.10,42.55826226132895,
0.45,15,4,124,4,210.81637720000072,None,210.81637720000072,None,210.81637720000072,None,right,0.8703290999983437,210.8734063999982,None,210.81637720000072,None,211.77612880000015,None,001,002,2021_Jan_21_2023,contrast,2020.2.10,42.55826226132895,
0.3,15,5,125,1,211.9794538999995,None,211.9794538999995,None,211.9794538999995,None,right,0.8185233999975026,212.03366090000054,None,211.9794538999995,None,212.8826196000009,None,001,002,2021_Jan_21_2023,contrast,2020.2.10,42.55826226132895,
0.25,15,6,126,0,213.1086413999983,None,213.1086413999983,None,213.1086413999983,None,left,1.0319230999994033,213.1659542999987,None,213.1086413999983,None,214.22330460000012,None,001,002,2021_Jan_21_2023,contrast,2020.2.10,42.55826226132895,
0.35,15,7,127,2,214.43945470000108,None,214.43945470000108,None,214.43945470000108,None,right,0.8750577999999223,214.51269540000067,None,214.43945470000108,None,215.41328390000126,None,001,002,2021_Jan_21_2023,contrast,2020.2.10,42.55826226132895,
0.25,16,0,128,0,215.6350585,None,215.6350585,None,215.6350585,None,right,1.5397850000008475,215.71009889999914,None,215.6350585,None,217.274883099999,None,001,002,2021_Jan_21_2023,contrast,2020.2.10,42.55826226132895,
0.6,16,1,129,7,217.49467849999928,None,217.49467849999928,None,217.49467849999928,None,right,0.7946757999998226,217.56979140000112,None,217.49467849999928,None,218.38939680000112,None,001,002,2021_Jan_21_2023,contrast,2020.2.10,42.55826226132895,
0.45,16,2,130,4,218.60911900000065,None,218.60911900000065,None,218.60911900000065,None,right,0.6512107999988075,218.6658830999986,None,218.60911900000065,None,219.34240059999865,None,001,002,2021_Jan_21_2023,contrast,2020.2.10,42.55826226132895,
0.35,16,3,131,2,219.5644883999994,None,219.5644883999994,None,219.5644883999994,None,right,1.494057800002338,219.63871759999893,None,219.5644883999994,None,221.15797480000037,None,001,002,2021_Jan_21_2023,contrast,2020.2.10,42.55826226132895,
0.55,16,4,132,6,221.3744947999985,None,221.3744947999985,None,221.3744947999985,None,right,1.0471198000013828,221.4483063000007,None,221.3744947999985,None,222.52203820000068,None,001,002,2021_Jan_21_2023,contrast,2020.2.10,42.55826226132895,
0.4,16,5,133,3,222.7455889999983,None,222.7455889999983,None,222.7455889999983,None,right,4.801564400000643,222.819127499999,None,222.7455889999983,None,227.6443775000007,None,001,002,2021_Jan_21_2023,contrast,2020.2.10,42.55826226132895,
0.3,16,6,134,1,227.86472700000013,None,227.86472700000013,None,227.86472700000013,None,right,0.5972249999977066,227.9382430000005,None,227.86472700000013,None,228.561858699999,None,001,002,2021_Jan_21_2023,contrast,2020.2.10,42.55826226132895,
0.5,16,7,135,5,228.78486809999958,None,228.78486809999958,None,228.78486809999958,None,right,0.5025954999982787,228.85902459999852,None,228.78486809999958,None,229.38652730000103,None,001,002,2021_Jan_21_2023,contrast,2020.2.10,42.55826226132895,
0.6,17,0,136,7,229.60637100000167,None,229.60637100000167,None,229.60637100000167,None,right,0.5602315999967686,229.68010389999836,None,229.60637100000167,None,230.2660762000014,None,001,002,2021_Jan_21_2023,contrast,2020.2.10,42.55826226132895,
0.4,17,1,137,3,230.4846389000013,None,230.4846389000013,None,230.4846389000013,None,right,1.2085650000008172,230.56083249999938,None,230.4846389000013,None,231.79426880000028,None,001,002,2021_Jan_21_2023,contrast,2020.2.10,42.55826226132895,
0.25,17,2,138,0,232.01900559999922,None,232.01900559999922,None,232.01900559999922,None,left,1.0849104999979318,232.09209869999904,None,232.01900559999922,None,233.20213629999853,None,001,002,2021_Jan_21_2023,contrast,2020.2.10,42.55826226132895,
0.5,17,3,139,5,233.42202579999866,None,233.42202579999866,None,233.42202579999866,None,right,0.6727633000009519,233.49734349999926,None,233.42202579999866,None,234.1964517999986,None,001,002,2021_Jan_21_2023,contrast,2020.2.10,42.55826226132895,
0.3,17,4,140,1,234.41661010000098,None,234.41661010000098,None,234.41661010000098,None,right,0.9178326999972342,234.49629560000176,None,234.41661010000098,None,235.44015260000015,None,001,002,2021_Jan_21_2023,contrast,2020.2.10,42.55826226132895,
0.35,17,5,141,2,235.66045799999847,None,235.66045799999847,None,235.66045799999847,None,right,0.5285336000015377,235.73452810000163,None,235.66045799999847,None,236.29028470000048,None,001,002,2021_Jan_21_2023,contrast,2020.2.10,42.55826226132895,
0.45,17,6,142,4,236.51464199999828,None,236.51464199999828,None,236.51464199999828,None,right,0.5477996000008716,236.59173699999883,None,236.51464199999828,None,237.1656922000002,None,001,002,2021_Jan_21_2023,contrast,2020.2.10,42.55826226132895,
0.55,17,7,143,6,237.3890281999993,None,237.3890281999993,None,237.3890281999993,None,right,0.5248453000021982,237.4675747000001,None,237.3890281999993,None,238.0174917000004,None,001,002,2021_Jan_21_2023,contrast,2020.2.10,42.55826226132895,
0.4,18,0,144,3,238.23979830000098,None,238.23979830000098,None,238.23979830000098,None,right,0.6832824999983131,238.31808779999847,None,238.23979830000098,None,239.02701389999856,None,001,002,2021_Jan_21_2023,contrast,2020.2.10,42.55826226132895,
0.6,18,1,145,7,239.24874740000087,None,239.24874740000087,None,239.24874740000087,None,right,0.44823680000263266,239.328285399999,None,239.24874740000087,None,239.8025099000006,None,001,002,2021_Jan_21_2023,contrast,2020.2.10,42.55826226132895,
0.55,18,2,146,6,240.02373069999885,None,240.02373069999885,None,240.02373069999885,None,right,0.4035888000034902,240.0998056999997,None,240.02373069999885,None,240.52906129999974,None,001,002,2021_Jan_21_2023,contrast,2020.2.10,42.55826226132895,
0.35,18,3,147,2,240.7315920000001,None,240.7315920000001,None,240.7315920000001,None,right,2.007027100000414,240.80711719999817,None,240.7315920000001,None,242.83990410000115,None,001,002,2021_Jan_21_2023,contrast,2020.2.10,42.55826226132895,
0.45,18,4,148,4,243.0629919999992,None,243.0629919999992,None,243.0629919999992,None,right,0.8090015999987372,243.13825720000023,None,243.0629919999992,None,243.97264010000072,None,001,002,2021_Jan_21_2023,contrast,2020.2.10,42.55826226132895,
0.5,18,5,149,5,244.18990850000046,None,244.18990850000046,None,244.18990850000046,None,right,0.48425069999939296,244.26425329999984,None,244.18990850000046,None,244.7746842000015,None,001,002,2021_Jan_21_2023,contrast,2020.2.10,42.55826226132895,
0.3,18,6,150,1,244.9919832000014,None,244.9919832000014,None,244.9919832000014,None,right,1.703658099999302,245.06788940000115,None,244.9919832000014,None,246.79649710000012,None,001,002,2021_Jan_21_2023,contrast,2020.2.10,42.55826226132895,
0.25,18,7,151,0,247.01349850000042,None,247.01349850000042,None,247.01349850000042,None,left,0.5748464999996941,247.0880591999994,None,247.01349850000042,None,247.6876704999995,None,001,002,2021_Jan_21_2023,contrast,2020.2.10,42.55826226132895,
0.25,19,0,152,0,247.90852720000112,None,247.90852720000112,None,247.90852720000112,None,right,0.5770612999986042,247.98251670000172,None,247.90852720000112,None,248.58570790000158,None,001,002,2021_Jan_21_2023,contrast,2020.2.10,42.55826226132895,
0.45,19,1,153,4,248.81083809999836,None,248.81083809999836,None,248.81083809999836,None,right,0.6984295000002021,248.88525220000156,None,248.81083809999836,None,249.60916029999862,None,001,002,2021_Jan_21_2023,contrast,2020.2.10,42.55826226132895,
0.55,19,2,154,6,249.82498240000132,None,249.82498240000132,None,249.82498240000132,None,right,0.37486940000235336,249.9022769000003,None,249.82498240000132,None,250.30245379999906,None,001,002,2021_Jan_21_2023,contrast,2020.2.10,42.55826226132895,
0.4,19,3,155,3,250.52363369999875,None,250.52363369999875,None,250.52363369999875,None,right,1.0050365000024613,250.59718179999982,None,250.52363369999875,None,251.62782660000084,None,001,002,2021_Jan_21_2023,contrast,2020.2.10,42.55826226132895,
0.5,19,4,156,5,251.852309599999,None,251.852309599999,None,251.852309599999,None,right,0.7913369999987481,251.92597549999846,None,251.852309599999,None,252.74335580000115,None,001,002,2021_Jan_21_2023,contrast,2020.2.10,42.55826226132895,
0.6,19,5,157,7,252.9457739999998,None,252.9457739999998,None,252.9457739999998,None,right,0.6510894999992161,253.0214092999995,None,252.9457739999998,None,253.69879389999915,None,001,002,2021_Jan_21_2023,contrast,2020.2.10,42.55826226132895,
0.3,19,6,158,1,253.9150684999986,None,253.9150684999986,None,253.9150684999986,None,left,1.015460800001165,253.98982329999853,None,253.9150684999986,None,255.0317959999993,None,001,002,2021_Jan_21_2023,contrast,2020.2.10,42.55826226132895,
0.35,19,7,159,2,255.25096320000011,None,255.25096320000011,None,255.25096320000011,None,left,0.6536813999991864,255.32608189999883,None,255.25096320000011,None,256.00415879999855,None,001,002,2021_Jan_21_2023,contrast,2020.2.10,42.55826226132895,
0.25,20,0,160,0,256.22487040000124,None,256.22487040000124,None,256.22487040000124,None,left,1.0488365000019257,256.2976119999985,None,256.22487040000124,None,257.3731899000013,None,001,002,2021_Jan_21_2023,contrast,2020.2.10,42.55826226132895,
0.45,20,1,161,4,257.59254689999943,None,257.59254689999943,None,257.59254689999943,None,right,0.8564915000024484,257.6678337000012,None,257.59254689999943,None,258.55034199999864,None,001,002,2021_Jan_21_2023,contrast,2020.2.10,42.55826226132895,
0.5,20,2,162,5,258.76118940000015,None,258.76118940000015,None,258.76118940000015,None,right,1.145908900001814,258.81743650000135,None,258.76118940000015,None,259.98884850000104,None,001,002,2021_Jan_21_2023,contrast,2020.2.10,42.55826226132895,
0.4,20,3,163,3,260.2068440000003,None,260.2068440000003,None,260.2068440000003,None,right,1.2375449000028311,260.2837091000001,None,260.2068440000003,None,261.5469865999985,None,001,002,2021_Jan_21_2023,contrast,2020.2.10,42.55826226132895,
0.35,20,4,164,2,261.7691416000016,None,261.7691416000016,None,261.7691416000016,None,right,3.756220999999641,261.8425902000017,None,261.7691416000016,None,265.62510960000145,None,001,002,2021_Jan_21_2023,contrast,2020.2.10,42.55826226132895,
0.55,20,5,165,6,265.8431208000002,None,265.8431208000002,None,265.8431208000002,None,right,0.5475736999978835,265.91635360000146,None,265.8431208000002,None,266.48903399999836,None,001,002,2021_Jan_21_2023,contrast,2020.2.10,42.55826226132895,
0.6,20,6,166,7,266.6908731000003,None,266.6908731000003,None,266.6908731000003,None,right,0.6250247999996645,266.76249129999997,None,266.6908731000003,None,267.41230500000165,None,001,002,2021_Jan_21_2023,contrast,2020.2.10,42.55826226132895,
0.3,20,7,167,1,267.6298475000003,None,267.6298475000003,None,267.6298475000003,None,left,0.9496137999994971,267.7028285999986,None,267.6298475000003,None,268.68022500000006,None,001,002,2021_Jan_21_2023,contrast,2020.2.10,42.55826226132895,
0.6,21,0,168,7,268.89974119999897,None,268.89974119999897,None,268.89974119999897,None,right,0.676767100001598,268.97420259999853,None,268.89974119999897,None,269.675456500001,None,001,002,2021_Jan_21_2023,contrast,2020.2.10,42.55826226132895,
0.3,21,1,169,1,269.8940143,None,269.8940143,None,269.8940143,None,left,1.3257981999995536,269.96908059999987,None,269.8940143,None,271.32018099999914,None,001,002,2021_Jan_21_2023,contrast,2020.2.10,42.55826226132895,
0.35,21,2,170,2,271.55492719999893,None,271.55492719999893,None,271.55492719999893,None,right,1.1878125999974145,271.61220630000025,None,271.55492719999893,None,272.82486359999893,None,001,002,2021_Jan_21_2023,contrast,2020.2.10,42.55826226132895,
0.4,21,3,171,3,273.04310890000124,None,273.04310890000124,None,273.04310890000124,None,right,0.6480790999994497,273.12120649999997,None,273.04310890000124,None,273.7944568999992,None,001,002,2021_Jan_21_2023,contrast,2020.2.10,42.55826226132895,
0.25,21,4,172,0,274.01735669999834,None,274.01735669999834,None,274.01735669999834,None,left,1.123434900000575,274.0897317000017,None,274.01735669999834,None,275.2380411000013,None,001,002,2021_Jan_21_2023,contrast,2020.2.10,42.55826226132895,
0.5,21,5,173,5,275.45607200000086,None,275.45607200000086,None,275.45607200000086,None,right,0.5728041000002122,275.5302050999999,None,275.45607200000086,None,276.1290719999997,None,001,002,2021_Jan_21_2023,contrast,2020.2.10,42.55826226132895,
0.55,21,6,174,6,276.3491757999982,None,276.3491757999982,None,276.3491757999982,None,right,0.6065006999997422,276.4246256000006,None,276.3491757999982,None,277.055735599999,None,001,002,2021_Jan_21_2023,contrast,2020.2.10,42.55826226132895,
0.45,21,7,175,4,277.27388749999955,None,277.27388749999955,None,277.27388749999955,None,right,0.45139559999734047,277.3470129000016,None,277.27388749999955,None,277.82618699999875,None,001,002,2021_Jan_21_2023,contrast,2020.2.10,42.55826226132895,
0.5,22,0,176,5,278.04894950000016,None,278.04894950000016,None,278.04894950000016,None,right,0.4526609999993525,278.12260310000056,None,278.04894950000016,None,278.6002386,None,001,002,2021_Jan_21_2023,contrast,2020.2.10,42.55826226132895,
0.6,22,1,177,7,278.8226743999985,None,278.8226743999985,None,278.8226743999985,None,right,0.5076646999987133,278.8980080000001,None,278.8226743999985,None,279.4320388999986,None,001,002,2021_Jan_21_2023,contrast,2020.2.10,42.55826226132895,
0.35,22,2,178,2,279.6515951000001,None,279.6515951000001,None,279.6515951000001,None,left,1.1642175999986648,279.72595139999976,None,279.6515951000001,None,280.9150187000014,None,001,002,2021_Jan_21_2023,contrast,2020.2.10,42.55826226132895,
0.25,22,3,179,0,281.1339001000015,None,281.1339001000015,None,281.1339001000015,None,right,0.8519865999987815,281.2100664999998,None,281.1339001000015,None,282.08672880000086,None,001,002,2021_Jan_21_2023,contrast,2020.2.10,42.55826226132895,
0.55,22,4,180,6,282.3038446999999,None,282.3038446999999,None,282.3038446999999,None,right,0.5772798999969382,282.37914420000016,None,282.3038446999999,None,282.98197230000005,None,001,002,2021_Jan_21_2023,contrast,2020.2.10,42.55826226132895,
0.45,22,5,181,4,283.20310790000076,None,283.20310790000076,None,283.20310790000076,None,right,0.8784278999992239,283.2774286999993,None,283.20310790000076,None,284.18085829999836,None,001,002,2021_Jan_21_2023,contrast,2020.2.10,42.55826226132895,
0.3,22,6,182,1,284.3988500000014,None,284.3988500000014,None,284.3988500000014,None,left,1.263504100003047,284.4740163999995,None,284.3988500000014,None,285.7651870000009,None,001,002,2021_Jan_21_2023,contrast,2020.2.10,42.55826226132895,
0.4,22,7,183,3,285.9839154000001,None,285.9839154000001,None,285.9839154000001,None,left,1.0756376000026648,286.0574401999984,None,285.9839154000001,None,287.15871360000165,None,001,002,2021_Jan_21_2023,contrast,2020.2.10,42.55826226132895,
0.4,23,0,184,3,287.37770499999897,None,287.37770499999897,None,287.37770499999897,None,right,0.5512128000009398,287.45180790000086,None,287.37770499999897,None,288.0278145000011,None,001,002,2021_Jan_21_2023,contrast,2020.2.10,42.55826226132895,
0.45,23,1,185,4,288.24353260000134,None,288.24353260000134,None,288.24353260000134,None,right,0.5755874999995285,288.3195463999982,None,288.24353260000134,None,288.9202569000008,None,001,002,2021_Jan_21_2023,contrast,2020.2.10,42.55826226132895,
0.3,23,2,186,1,289.14679550000074,None,289.14679550000074,None,289.14679550000074,None,left,1.1060919999981706,289.2245436000012,None,289.14679550000074,None,290.35582050000085,None,001,002,2021_Jan_21_2023,contrast,2020.2.10,42.55826226132895,
0.25,23,3,187,0,290.5773565999989,None,290.5773565999989,None,290.5773565999989,None,left,1.048332099999243,290.6575109000005,None,290.5773565999989,None,291.7310400999995,None,001,002,2021_Jan_21_2023,contrast,2020.2.10,42.55826226132895,
0.6,23,4,188,7,291.9491707999987,None,291.9491707999987,None,291.9491707999987,None,right,0.4707497000017611,292.02418639999814,None,291.9491707999987,None,292.51945310000156,None,001,002,2021_Jan_21_2023,contrast,2020.2.10,42.55826226132895,
0.55,23,5,189,6,292.74425269999847,None,292.74425269999847,None,292.74425269999847,None,right,0.42541040000287467,292.8200899000003,None,292.74425269999847,None,293.27143680000154,None,001,002,2021_Jan_21_2023,contrast,2020.2.10,42.55826226132895,
0.5,23,6,190,5,293.4897544999985,None,293.4897544999985,None,293.4897544999985,None,right,0.3835856000005151,293.57343989999936,None,293.4897544999985,None,293.9826909000003,None,001,002,2021_Jan_21_2023,contrast,2020.2.10,42.55826226132895,
0.35,23,7,191,2,294.2009330000001,None,294.2009330000001,None,294.2009330000001,None,left,0.9300766999986081,294.2767445999998,None,294.2009330000001,None,295.2331907000007,None,001,002,2021_Jan_21_2023,contrast,2020.2.10,42.55826226132895,
0.45,24,0,192,4,295.44996750000064,None,295.44996750000064,None,295.44996750000064,None,right,1.0523676999982854,295.5249283000012,None,295.44996750000064,None,296.6035652999999,None,001,002,2021_Jan_21_2023,contrast,2020.2.10,42.55826226132895,
0.35,24,1,193,2,296.8054469000017,None,296.8054469000017,None,296.8054469000017,None,left,0.7514566000027116,296.8814195999985,None,296.8054469000017,None,297.6569761999999,None,001,002,2021_Jan_21_2023,contrast,2020.2.10,42.55826226132895,
0.4,24,2,194,3,297.87374049999926,None,297.87374049999926,None,297.87374049999926,None,left,0.8623231000019587,297.94608979999975,None,297.87374049999926,None,298.83442229999855,None,001,002,2021_Jan_21_2023,contrast,2020.2.10,42.55826226132895,
0.3,24,3,195,1,299.0530996000016,None,299.0530996000016,None,299.0530996000016,None,left,0.7687999000008858,299.1277881999995,None,299.0530996000016,None,299.92220129999987,None,001,002,2021_Jan_21_2023,contrast,2020.2.10,42.55826226132895,
0.55,24,4,196,6,300.1419812999993,None,300.1419812999993,None,300.1419812999993,None,right,0.6090737000013178,300.21591790000093,None,300.1419812999993,None,300.8506128000008,None,001,002,2021_Jan_21_2023,contrast,2020.2.10,42.55826226132895,
0.5,24,5,197,5,301.0696218000012,None,301.0696218000012,None,301.0696218000012,None,right,0.4001858999981778,301.1442833000001,None,301.0696218000012,None,301.57074600000124,None,001,002,2021_Jan_21_2023,contrast,2020.2.10,42.55826226132895,
0.25,24,6,198,0,301.7897014000009,None,301.7897014000009,None,301.7897014000009,None,left,0.701980600002571,301.8687815000012,None,301.7897014000009,None,302.5958716999994,None,001,002,2021_Jan_21_2023,contrast,2020.2.10,42.55826226132895,
0.6,24,7,199,7,302.8229370000008,None,302.8229370000008,None,302.8229370000008,None,right,0.44968250000238186,302.8968320999993,None,302.8229370000008,None,303.37320589999945,None,001,002,2021_Jan_21_2023,contrast,2020.2.10,42.55826226132895,
0.25,25,0,200,0,303.59358540000176,None,303.59358540000176,None,303.59358540000176,None,left,2.690627100000711,303.6689942999983,None,303.59358540000176,None,306.3853041000002,None,001,002,2021_Jan_21_2023,contrast,2020.2.10,42.55826226132895,
0.5,25,1,201,5,306.60485459999836,None,306.60485459999836,None,306.60485459999836,None,right,0.6305896000012581,306.68623429999934,None,306.60485459999836,None,307.34315140000035,None,001,002,2021_Jan_21_2023,contrast,2020.2.10,42.55826226132895,
0.4,25,2,202,3,307.56667689999813,None,307.56667689999813,None,307.56667689999813,None,right,0.44610240000110934,307.64299519999986,None,307.56667689999813,None,308.11392179999893,None,001,002,2021_Jan_21_2023,contrast,2020.2.10,42.55826226132895,
0.45,25,3,203,4,308.3330453999988,None,308.3330453999988,None,308.3330453999988,None,right,0.4357821999983571,308.40836259999924,None,308.3330453999988,None,308.8691816999999,None,001,002,2021_Jan_21_2023,contrast,2020.2.10,42.55826226132895,
0.3,25,4,204,1,309.08687289999943,None,309.08687289999943,None,309.08687289999943,None,left,1.7309387999994215,309.16165270000056,None,309.08687289999943,None,310.917184599999,None,001,002,2021_Jan_21_2023,contrast,2020.2.10,42.55826226132895,
0.55,25,5,205,6,311.1361298000011,None,311.1361298000011,None,311.1361298000011,None,right,0.5540638999991643,311.20979499999885,None,311.1361298000011,None,311.7887816000002,None,001,002,2021_Jan_21_2023,contrast,2020.2.10,42.55826226132895,
0.6,25,6,206,7,312.0129643,None,312.0129643,None,312.0129643,None,right,0.4786805999974604,312.0857756000005,None,312.0129643,None,312.5914856999989,None,001,002,2021_Jan_21_2023,contrast,2020.2.10,42.55826226132895,
0.35,25,7,207,2,312.8160338000016,None,312.8160338000016,None,312.8160338000016,None,left,1.399094199998217,312.8901229000003,None,312.8160338000016,None,314.31553279999935,None,001,002,2021_Jan_21_2023,contrast,2020.2.10,42.55826226132895,
0.3,26,0,208,1,314.5353413999983,None,314.5353413999983,None,314.5353413999983,None,left,0.8644177999995009,314.611400400001,None,314.5353413999983,None,315.5018186999987,None,001,002,2021_Jan_21_2023,contrast,2020.2.10,42.55826226132895,
0.6,26,1,209,7,315.7225561999985,None,315.7225561999985,None,315.7225561999985,None,right,0.6684100999991642,315.8072009999996,None,315.7225561999985,None,316.50016419999884,None,001,002,2021_Jan_21_2023,contrast,2020.2.10,42.55826226132895,
0.4,26,2,210,3,316.72815329999867,None,316.72815329999867,None,316.72815329999867,None,right,0.5758409999980358,316.8020285999992,None,316.72815329999867,None,317.4039620000003,None,001,002,2021_Jan_21_2023,contrast,2020.2.10,42.55826226132895,
0.25,26,3,211,0,317.6233739999989,None,317.6233739999989,None,317.6233739999989,None,left,0.7761043999998947,317.7002470000007,None,317.6233739999989,None,318.50261939999837,None,001,002,2021_Jan_21_2023,contrast,2020.2.10,42.55826226132895,
0.55,26,4,212,6,318.7078135999982,None,318.7078135999982,None,318.7078135999982,None,right,0.8961861999996472,318.7602917000004,None,318.7078135999982,None,319.6825824000007,None,001,002,2021_Jan_21_2023,contrast,2020.2.10,42.55826226132895,
0.45,26,5,213,4,319.90295369999876,None,319.90295369999876,None,319.90295369999876,None,right,0.5946374000013748,319.9767188000005,None,319.90295369999876,None,320.59774449999895,None,001,002,2021_Jan_21_2023,contrast,2020.2.10,42.55826226132895,
0.35,26,6,214,2,320.82219669999904,None,320.82219669999904,None,320.82219669999904,None,right,1.2081985000004352,320.89559720000034,None,320.82219669999904,None,322.12881130000096,None,001,002,2021_Jan_21_2023,contrast,2020.2.10,42.55826226132895,
0.5,26,7,215,5,322.34748899999977,None,322.34748899999977,None,322.34748899999977,None,right,0.45065749999776017,322.4219754000005,None,322.34748899999977,None,322.89810260000013,None,001,002,2021_Jan_21_2023,contrast,2020.2.10,42.55826226132895,
0.5,27,0,216,5,323.1201384999986,None,323.1201384999986,None,323.1201384999986,None,right,0.5474591000020155,323.1931316000009,None,323.1201384999986,None,323.76531469999827,None,001,002,2021_Jan_21_2023,contrast,2020.2.10,42.55826226132895,
0.4,27,1,217,3,323.98819640000147,None,323.98819640000147,None,323.98819640000147,None,right,0.7045527000009315,324.06282519999877,None,323.98819640000147,None,324.8066781000016,None,001,002,2021_Jan_21_2023,contrast,2020.2.10,42.55826226132895,
0.45,27,2,218,4,324.9991483999984,None,324.9991483999984,None,324.9991483999984,None,left,0.949270000000979,325.07335460000104,None,324.9991483999984,None,326.048115900001,None,001,002,2021_Jan_21_2023,contrast,2020.2.10,42.55826226132895,
0.3,27,3,219,1,326.2639893000014,None,326.2639893000014,None,326.2639893000014,None,left,0.7540937000012491,326.34080489999906,None,326.2639893000014,None,327.1219964999982,None,001,002,2021_Jan_21_2023,contrast,2020.2.10,42.55826226132895,
0.35,27,4,220,2,327.3412758000013,None,327.3412758000013,None,327.3412758000013,None,left,0.5523991000009119,327.4163301000008,None,327.3412758000013,None,327.99325880000106,None,001,002,2021_Jan_21_2023,contrast,2020.2.10,42.55826226132895,
0.25,27,5,221,0,328.21710449999955,None,328.21710449999955,None,328.21710449999955,None,left,0.9102529999981925,328.28977450000093,None,328.21710449999955,None,329.22610910000003,None,001,002,2021_Jan_21_2023,contrast,2020.2.10,42.55826226132895,
0.6,27,6,222,7,329.4281421000014,None,329.4281421000014,None,329.4281421000014,None,right,0.6650732000016433,329.50418569999965,None,329.4281421000014,None,330.19530170000144,None,001,002,2021_Jan_21_2023,contrast,2020.2.10,42.55826226132895,
0.55,27,7,223,6,330.4155782000016,None,330.4155782000016,None,330.4155782000016,None,right,0.5335466999968048,330.49172479999834,None,330.4155782000016,None,331.0496099000011,None,001,002,2021_Jan_21_2023,contrast,2020.2.10,42.55826226132895,
0.6,28,0,224,7,331.2644146999992,None,331.2644146999992,None,331.2644146999992,None,right,0.5516200000020035,331.31877090000125,None,331.2644146999992,None,331.89669050000157,None,001,002,2021_Jan_21_2023,contrast,2020.2.10,42.55826226132895,
0.5,28,1,225,5,332.1183190999982,None,332.1183190999982,None,332.1183190999982,None,right,0.47197079999750713,332.19168459999855,None,332.1183190999982,None,332.6943844000016,None,001,002,2021_Jan_21_2023,contrast,2020.2.10,42.55826226132895,
0.3,28,2,226,1,332.89709389999916,None,332.89709389999916,None,332.89709389999916,None,left,0.724397100002534,332.9707844000004,None,332.89709389999916,None,333.7205241999982,None,001,002,2021_Jan_21_2023,contrast,2020.2.10,42.55826226132895,
0.25,28,3,227,0,333.9367104000012,None,333.9367104000012,None,333.9367104000012,None,right,0.4991602000009152,334.0121074000017,None,333.9367104000012,None,334.5374508999994,None,001,002,2021_Jan_21_2023,contrast,2020.2.10,42.55826226132895,
0.4,28,4,228,3,334.7417615000013,None,334.7417615000013,None,334.7417615000013,None,right,0.5772952000006626,334.81484419999833,None,334.7417615000013,None,335.4176136999995,None,001,002,2021_Jan_21_2023,contrast,2020.2.10,42.55826226132895,
0.55,28,5,229,6,335.6413321,None,335.6413321,None,335.6413321,None,right,0.38122289999955683,335.7186905000017,None,335.6413321,None,336.12456139999995,None,001,002,2021_Jan_21_2023,contrast,2020.2.10,42.55826226132895,
0.45,28,6,230,4,336.34462390000044,None,336.34462390000044,None,336.34462390000044,None,right,0.43690260000221315,336.4222461999998,None,336.34462390000044,None,336.88550210000176,None,001,002,2021_Jan_21_2023,contrast,2020.2.10,42.55826226132895,
0.35,28,7,231,2,337.1103608000012,None,337.1103608000012,None,337.1103608000012,None,left,0.6682376000026125,337.16006769999876,None,337.1103608000012,None,337.8543205999995,None,001,002,2021_Jan_21_2023,contrast,2020.2.10,42.55826226132895,
0.4,29,0,232,3,338.0729904,None,338.0729904,None,338.0729904,None,left,0.6110547999996925,338.14781180000136,None,338.0729904,None,338.7851121999993,None,001,002,2021_Jan_21_2023,contrast,2020.2.10,42.55826226132895,
0.45,29,1,233,4,339.0021092999996,None,339.0021092999996,None,339.0021092999996,None,right,1.4865548000016133,339.0772685000011,None,339.0021092999996,None,340.5896149,None,001,002,2021_Jan_21_2023,contrast,2020.2.10,42.55826226132895,
0.5,29,2,234,5,340.80664439999964,None,340.80664439999964,None,340.80664439999964,None,right,0.5243413999996847,340.8686314000006,None,340.80664439999964,None,341.4175826999999,None,001,002,2021_Jan_21_2023,contrast,2020.2.10,42.55826226132895,
0.6,29,3,235,7,341.6433872999987,None,341.6433872999987,None,341.6433872999987,None,right,0.4783595000008063,341.7157851999982,None,341.6433872999987,None,342.2213064999996,None,001,002,2021_Jan_21_2023,contrast,2020.2.10,42.55826226132895,
0.25,29,4,236,0,342.43852379999953,None,342.43852379999953,None,342.43852379999953,None,left,1.6751952999984496,342.5141220000005,None,342.43852379999953,None,344.21488540000064,None,001,002,2021_Jan_21_2023,contrast,2020.2.10,42.55826226132895,
0.3,29,5,237,1,344.4319147999995,None,344.4319147999995,None,344.4319147999995,None,left,1.2166665000004286,344.50783729999966,None,344.4319147999995,None,345.75014379999993,None,001,002,2021_Jan_21_2023,contrast,2020.2.10,42.55826226132895,
0.55,29,6,238,6,345.9671320000016,None,345.9671320000016,None,345.9671320000016,None,right,0.47380970000085654,346.0432295999999,None,345.9671320000016,None,346.54146050000054,None,001,002,2021_Jan_21_2023,contrast,2020.2.10,42.55826226132895,
0.35,29,7,239,2,346.7425371999998,None,346.7425371999998,None,346.7425371999998,None,right,0.7668642999997246,346.81730049999896,None,346.7425371999998,None,347.61008420000144,None,001,002,2021_Jan_21_2023,contrast,2020.2.10,42.55826226132895,
