rgb_luminance,trials.thisRepN,trials.thisTrialN,trials.thisN,trials.thisIndex,patch_background.started,patch_background.stopped,patch_foreground.started,patch_foreground.stopped,patch_test.started,patch_test.stopped,key_response.keys,key_response.rt,key_response.started,key_response.stopped,text_task.started,text_task.stopped,text.started,text.stopped,participant,session,date,expName,psychopyVersion,frameRate,
0.55,0,0,0,6,27.88907739999999,None,27.88907739999999,None,27.88907739999999,None,left,4.342451400000016,27.95995339999999,None,27.88907739999999,None,32.32889509999998,None,002,010,2021_Jan_22_1130,contrast,2020.2.10,43.80652410563646,
0.4,0,1,1,3,32.534049099999976,None,32.534049099999976,None,32.534049099999976,None,left,1.7134371999999871,32.604401199999984,None,32.534049099999976,None,34.34253559999999,None,002,010,2021_Jan_22_1130,contrast,2020.2.10,43.80652410563646,
0.6,0,2,2,7,34.54868859999999,None,34.54868859999999,None,34.54868859999999,None,right,1.4715020999999808,34.6174776,None,34.54868859999999,None,36.112175399999984,None,002,010,2021_Jan_22_1130,contrast,2020.2.10,43.80652410563646,
0.25,0,3,3,0,36.31481929999998,None,36.31481929999998,None,36.31481929999998,None,left,1.9171077000000025,36.38456869999999,None,36.31481929999998,None,38.324785399999996,None,002,010,2021_Jan_22_1130,contrast,2020.2.10,43.80652410563646,
0.3,0,4,4,1,38.53351029999999,None,38.53351029999999,None,38.53351029999999,None,left,3.377738700000009,38.6023735,None,38.53351029999999,None,42.003926699999994,None,002,010,2021_Jan_22_1130,contrast,2020.2.10,43.80652410563646,
0.5,0,5,5,5,42.209092699999985,None,42.209092699999985,None,42.209092699999985,None,right,3.109693700000008,42.279467899999986,None,42.209092699999985,None,45.413306499999976,None,002,010,2021_Jan_22_1130,contrast,2020.2.10,43.80652410563646,
0.35,0,6,6,2,45.61734319999999,None,45.61734319999999,None,45.61734319999999,None,left,3.1934784999999977,45.68769449999999,None,45.61734319999999,None,48.905332199999975,None,002,010,2021_Jan_22_1130,contrast,2020.2.10,43.80652410563646,
0.45,0,7,7,4,49.1096278,None,49.1096278,None,49.1096278,None,right,1.9919644000000005,49.180479399999996,None,49.1096278,None,51.19737079999999,None,002,010,2021_Jan_22_1130,contrast,2020.2.10,43.80652410563646,
0.6,1,0,8,7,51.40047319999999,None,51.40047319999999,None,51.40047319999999,None,right,1.4050335000000018,51.4703126,None,51.40047319999999,None,52.89872789999998,None,002,010,2021_Jan_22_1130,contrast,2020.2.10,43.80652410563646,
0.4,1,1,9,3,53.10304309999998,None,53.10304309999998,None,53.10304309999998,None,left,1.8719566999999984,53.17250109999998,None,53.10304309999998,None,55.06832889999998,None,002,010,2021_Jan_22_1130,contrast,2020.2.10,43.80652410563646,
0.35,1,2,10,2,55.27304219999999,None,55.27304219999999,None,55.27304219999999,None,left,2.234761899999995,55.34304479999997,None,55.27304219999999,None,57.601926399999996,None,002,010,2021_Jan_22_1130,contrast,2020.2.10,43.80652410563646,
0.55,1,3,11,6,57.8060285,None,57.8060285,None,57.8060285,None,right,0.8061203999999975,57.87551429999999,None,57.8060285,None,58.706028299999986,None,002,010,2021_Jan_22_1130,contrast,2020.2.10,43.80652410563646,
0.25,1,4,12,0,58.91692339999997,None,58.91692339999997,None,58.91692339999997,None,left,1.0721194000000196,58.98527489999998,None,58.91692339999997,None,60.081055299999974,None,002,010,2021_Jan_22_1130,contrast,2020.2.10,43.80652410563646,
0.3,1,5,13,1,60.28767339999999,None,60.28767339999999,None,60.28767339999999,None,left,1.8601815000000101,60.35705909999999,None,60.28767339999999,None,62.24032509999998,None,002,010,2021_Jan_22_1130,contrast,2020.2.10,43.80652410563646,
0.45,1,6,14,4,62.445516,None,62.445516,None,62.445516,None,left,0.9965685000000235,62.51625039999999,None,62.445516,None,63.53761989999998,None,002,010,2021_Jan_22_1130,contrast,2020.2.10,43.80652410563646,
0.5,1,7,15,5,63.75382189999999,None,63.75382189999999,None,63.75382189999999,None,left,0.9424943999999869,63.82446920000001,None,63.75382189999999,None,64.79078149999998,None,002,010,2021_Jan_22_1130,contrast,2020.2.10,43.80652410563646,
0.5,2,0,16,5,65.00226090000001,None,65.00226090000001,None,65.00226090000001,None,left,1.2830208000000312,65.07621789999996,None,65.00226090000001,None,66.383171,None,002,010,2021_Jan_22_1130,contrast,2020.2.10,43.80652410563646,
0.4,2,1,17,3,66.58665209999998,None,66.58665209999998,None,66.58665209999998,None,left,1.0758534000000282,66.65676300000001,None,66.58665209999998,None,67.75522849999999,None,002,010,2021_Jan_22_1130,contrast,2020.2.10,43.80652410563646,
0.55,2,2,18,6,67.96122020000001,None,67.96122020000001,None,67.96122020000001,None,right,1.3496132000000216,68.03103749999997,None,67.96122020000001,None,69.40456269999999,None,002,010,2021_Jan_22_1130,contrast,2020.2.10,43.80652410563646,
0.45,2,3,19,4,69.60773839999996,None,69.60773839999996,None,69.60773839999996,None,left,1.464010500000029,69.67726069999998,None,69.60773839999996,None,71.16454419999997,None,002,010,2021_Jan_22_1130,contrast,2020.2.10,43.80652410563646,
0.25,2,4,20,0,71.36758119999996,None,71.36758119999996,None,71.36758119999996,None,left,1.1187214000000267,71.4367502,None,71.36758119999996,None,72.57882000000001,None,002,010,2021_Jan_22_1130,contrast,2020.2.10,43.80652410563646,
0.6,2,5,21,7,72.7885713,None,72.7885713,None,72.7885713,None,right,0.7019808000000012,72.86336769999997,None,72.7885713,None,73.58927080000001,None,002,010,2021_Jan_22_1130,contrast,2020.2.10,43.80652410563646,
0.3,2,6,22,1,73.80248739999996,None,73.80248739999996,None,73.80248739999996,None,left,0.8393811999999912,73.87211300000001,None,73.80248739999996,None,74.73606919999997,None,002,010,2021_Jan_22_1130,contrast,2020.2.10,43.80652410563646,
0.35,2,7,23,2,74.94859589999999,None,74.94859589999999,None,74.94859589999999,None,left,0.7446607999999628,75.01695819999998,None,74.94859589999999,None,75.78519080000001,None,002,010,2021_Jan_22_1130,contrast,2020.2.10,43.80652410563646,
0.4,3,0,24,3,75.98819470000001,None,75.98819470000001,None,75.98819470000001,None,right,0.7235933000000045,76.0580529,None,75.98819470000001,None,76.80895579999998,None,002,010,2021_Jan_22_1130,contrast,2020.2.10,43.80652410563646,
0.6,3,1,25,7,77.0183649,None,77.0183649,None,77.0183649,None,right,0.6838831999999684,77.08916490000001,None,77.0183649,None,77.79798949999997,None,002,010,2021_Jan_22_1130,contrast,2020.2.10,43.80652410563646,
0.55,3,2,26,6,78.0030003,None,78.0030003,None,78.0030003,None,right,1.5635335000000055,78.07271839999999,None,78.0030003,None,79.66325209999997,None,002,010,2021_Jan_22_1130,contrast,2020.2.10,43.80652410563646,
0.45,3,3,27,4,79.87787800000001,None,79.87787800000001,None,79.87787800000001,None,left,6.3743427,79.95998359999999,None,79.87787800000001,None,86.35877579999999,None,002,010,2021_Jan_22_1130,contrast,2020.2.10,43.80652410563646,
0.3,3,4,28,1,86.56355049999996,None,86.56355049999996,None,86.56355049999996,None,left,1.916103000000021,86.63458700000001,None,86.56355049999996,None,88.57461289999998,None,002,010,2021_Jan_22_1130,contrast,2020.2.10,43.80652410563646,
0.35,3,5,29,2,88.77719300000001,None,88.77719300000001,None,88.77719300000001,None,left,0.7945324000000369,88.85504170000002,None,88.77719300000001,None,89.6733405,None,002,010,2021_Jan_22_1130,contrast,2020.2.10,43.80652410563646,
0.5,3,6,30,5,89.8858457,None,89.8858457,None,89.8858457,None,right,0.5433648000000062,89.95725279999999,None,89.8858457,None,90.52482520000001,None,002,010,2021_Jan_22_1130,contrast,2020.2.10,43.80652410563646,
0.25,3,7,31,0,90.73398659999998,None,90.73398659999998,None,90.73398659999998,None,left,1.210499900000002,90.81141179999997,None,90.73398659999998,None,92.04622610000001,None,002,010,2021_Jan_22_1130,contrast,2020.2.10,43.80652410563646,
0.45,4,0,32,4,92.24979359999998,None,92.24979359999998,None,92.24979359999998,None,right,0.8664540999999986,92.31861299999997,None,92.24979359999998,None,93.20815829999998,None,002,010,2021_Jan_22_1130,contrast,2020.2.10,43.80652410563646,
0.3,4,1,33,1,93.41185789999997,None,93.41185789999997,None,93.41185789999997,None,left,1.2882098000000042,93.48314089999997,None,93.41185789999997,None,94.79532869999997,None,002,010,2021_Jan_22_1130,contrast,2020.2.10,43.80652410563646,
0.25,4,2,34,0,95.00500590000001,None,95.00500590000001,None,95.00500590000001,None,left,1.1135532000000126,95.0757059,None,95.00500590000001,None,96.21349470000001,None,002,010,2021_Jan_22_1130,contrast,2020.2.10,43.80652410563646,
0.55,4,3,35,6,96.42321069999997,None,96.42321069999997,None,96.42321069999997,None,right,0.5568875999999818,96.49425070000001,None,96.42321069999997,None,97.0793127,None,002,010,2021_Jan_22_1130,contrast,2020.2.10,43.80652410563646,
0.35,4,4,36,2,97.30159090000001,None,97.30159090000001,None,97.30159090000001,None,left,1.2791096000000266,97.37229059999999,None,97.30159090000001,None,98.67492820000001,None,002,010,2021_Jan_22_1130,contrast,2020.2.10,43.80652410563646,
0.4,4,5,37,3,98.88553959999996,None,98.88553959999996,None,98.88553959999996,None,right,2.380197799999962,98.95871699999998,None,98.88553959999996,None,101.36318039999998,None,002,010,2021_Jan_22_1130,contrast,2020.2.10,43.80652410563646,
0.6,4,6,38,7,101.56880059999997,None,101.56880059999997,None,101.56880059999997,None,right,1.4450710000000413,101.64294710000001,None,101.56880059999997,None,103.11135109999998,None,002,010,2021_Jan_22_1130,contrast,2020.2.10,43.80652410563646,
0.5,4,7,39,5,103.31811019999998,None,103.31811019999998,None,103.31811019999998,None,right,1.5406497000000172,103.39339939999996,None,103.31811019999998,None,104.95773199999996,None,002,010,2021_Jan_22_1130,contrast,2020.2.10,43.80652410563646,
0.45,5,0,40,4,105.16112449999997,None,105.16112449999997,None,105.16112449999997,None,right,1.880509399999994,105.23214789999997,None,105.16112449999997,None,107.13641129999996,None,002,010,2021_Jan_22_1130,contrast,2020.2.10,43.80652410563646,
0.25,5,1,41,0,107.34127910000001,None,107.34127910000001,None,107.34127910000001,None,left,1.0531766000000289,107.41378099999997,None,107.34127910000001,None,108.49204399999996,None,002,010,2021_Jan_22_1130,contrast,2020.2.10,43.80652410563646,
0.4,5,2,42,3,108.69525770000001,None,108.69525770000001,None,108.69525770000001,None,left,1.546258899999998,108.76463459999997,None,108.69525770000001,None,110.33522269999997,None,002,010,2021_Jan_22_1130,contrast,2020.2.10,43.80652410563646,
0.6,5,3,43,7,110.53869909999997,None,110.53869909999997,None,110.53869909999997,None,right,0.588855199999955,110.60890619999998,None,110.53869909999997,None,111.22177929999998,None,002,010,2021_Jan_22_1130,contrast,2020.2.10,43.80652410563646,
0.55,5,4,44,6,111.4266657,None,111.4266657,None,111.4266657,None,right,0.9510106999999834,111.49600229999999,None,111.4266657,None,112.4703907,None,002,010,2021_Jan_22_1130,contrast,2020.2.10,43.80652410563646,
0.3,5,5,45,1,112.67720449999996,None,112.67720449999996,None,112.67720449999996,None,left,5.278374799999995,112.74689799999999,None,112.67720449999996,None,118.04914109999999,None,002,010,2021_Jan_22_1130,contrast,2020.2.10,43.80652410563646,
0.5,5,6,46,5,118.25975719999997,None,118.25975719999997,None,118.25975719999997,None,right,0.8141892000000439,118.3293658,None,118.25975719999997,None,119.16690389999997,None,002,010,2021_Jan_22_1130,contrast,2020.2.10,43.80652410563646,
0.35,5,7,47,2,119.38059609999999,None,119.38059609999999,None,119.38059609999999,None,right,0.8950874000000226,119.45168760000001,None,119.38059609999999,None,120.3704778,None,002,010,2021_Jan_22_1130,contrast,2020.2.10,43.80652410563646,
0.25,6,0,48,0,120.57866389999998,None,120.57866389999998,None,120.57866389999998,None,right,0.8334578000000192,120.6523297,None,120.57866389999998,None,121.50968189999998,None,002,010,2021_Jan_22_1130,contrast,2020.2.10,43.80652410563646,
0.3,6,1,49,1,121.7185303,None,121.7185303,None,121.7185303,None,right,1.381915499999991,121.79200959999997,None,121.7185303,None,123.20386339999999,None,002,010,2021_Jan_22_1130,contrast,2020.2.10,43.80652410563646,
0.45,6,2,50,4,123.41706519999997,None,123.41706519999997,None,123.41706519999997,None,right,0.6806920000000218,123.49252289999998,None,123.41706519999997,None,124.19656570000001,None,002,010,2021_Jan_22_1130,contrast,2020.2.10,43.80652410563646,
0.35,6,3,51,2,124.40167199999996,None,124.40167199999996,None,124.40167199999996,None,right,1.6965309000000275,124.47133400000001,None,124.40167199999996,None,126.1921623,None,002,010,2021_Jan_22_1130,contrast,2020.2.10,43.80652410563646,
0.4,6,4,52,3,126.3946431,None,126.3946431,None,126.3946431,None,right,2.7280251999999905,126.46469780000001,None,126.3946431,None,129.2200039,None,002,010,2021_Jan_22_1130,contrast,2020.2.10,43.80652410563646,
0.5,6,5,53,5,129.42625169999997,None,129.42625169999997,None,129.42625169999997,None,right,1.5705702999999858,129.49588189999997,None,129.42625169999997,None,131.09028669999998,None,002,010,2021_Jan_22_1130,contrast,2020.2.10,43.80652410563646,
0.6,6,6,54,7,131.29479269999996,None,131.29479269999996,None,131.29479269999996,None,right,0.8527268999999933,131.365499,None,131.29479269999996,None,132.2427341,None,002,010,2021_Jan_22_1130,contrast,2020.2.10,43.80652410563646,
0.55,6,7,55,6,132.44954159999998,None,132.44954159999998,None,132.44954159999998,None,right,1.1174368000000072,132.52012579999996,None,132.44954159999998,None,133.6627031,None,002,010,2021_Jan_22_1130,contrast,2020.2.10,43.80652410563646,
0.6,7,0,56,7,133.866196,None,133.866196,None,133.866196,None,right,1.5636166000000458,133.93636229999998,None,133.866196,None,135.52477219999997,None,002,010,2021_Jan_22_1130,contrast,2020.2.10,43.80652410563646,
0.45,7,1,57,4,135.72827989999996,None,135.72827989999996,None,135.72827989999996,None,right,2.578071799999975,135.79894859999996,None,135.72827989999996,None,138.4011466,None,002,010,2021_Jan_22_1130,contrast,2020.2.10,43.80652410563646,
0.25,7,2,58,0,138.6030738,None,138.6030738,None,138.6030738,None,left,0.9586514999999736,138.671262,None,138.6030738,None,139.65384339999997,None,002,010,2021_Jan_22_1130,contrast,2020.2.10,43.80652410563646,
0.35,7,3,59,2,139.8576547,None,139.8576547,None,139.8576547,None,right,1.243465600000036,139.9280574,None,139.8576547,None,141.1950792,None,002,010,2021_Jan_22_1130,contrast,2020.2.10,43.80652410563646,
0.5,7,4,60,5,141.39870709999997,None,141.39870709999997,None,141.39870709999997,None,right,0.9900188999999955,141.46970289999996,None,141.39870709999997,None,142.4846566,None,002,010,2021_Jan_22_1130,contrast,2020.2.10,43.80652410563646,
0.4,7,5,61,3,142.69127499999996,None,142.69127499999996,None,142.69127499999996,None,right,1.6168261999999913,142.76114079999996,None,142.69127499999996,None,144.4027951,None,002,010,2021_Jan_22_1130,contrast,2020.2.10,43.80652410563646,
0.55,7,6,62,6,144.607981,None,144.607981,None,144.607981,None,right,1.8520618000000013,144.67739869999997,None,144.607981,None,146.55345819999997,None,002,010,2021_Jan_22_1130,contrast,2020.2.10,43.80652410563646,
0.3,7,7,63,1,146.75755219999996,None,146.75755219999996,None,146.75755219999996,None,left,0.7915131999999971,146.8327243,None,146.75755219999996,None,147.64875419999998,None,002,010,2021_Jan_22_1130,contrast,2020.2.10,43.80652410563646,
0.5,8,0,64,5,147.85169659999997,None,147.85169659999997,None,147.85169659999997,None,right,0.8373184000000151,147.92302949999998,None,147.85169659999997,None,148.7846038,None,002,010,2021_Jan_22_1130,contrast,2020.2.10,43.80652410563646,
0.4,8,1,65,3,148.99269349999997,None,148.99269349999997,None,148.99269349999997,None,left,0.7867109000000028,149.06231609999998,None,148.99269349999997,None,149.8742133,None,002,010,2021_Jan_22_1130,contrast,2020.2.10,43.80652410563646,
0.45,8,2,66,4,150.0749055,None,150.0749055,None,150.0749055,None,right,5.302460900000028,150.14426929999996,None,150.0749055,None,155.47056779999997,None,002,010,2021_Jan_22_1130,contrast,2020.2.10,43.80652410563646,
0.25,8,3,67,0,155.6735248,None,155.6735248,None,155.6735248,None,left,0.8987662000000114,155.74314629999998,None,155.6735248,None,156.6660983,None,002,010,2021_Jan_22_1130,contrast,2020.2.10,43.80652410563646,
0.6,8,4,68,7,156.87536799999998,None,156.87536799999998,None,156.87536799999998,None,right,0.8590686999999662,156.9453759,None,156.87536799999998,None,157.8276664,None,002,010,2021_Jan_22_1130,contrast,2020.2.10,43.80652410563646,
0.55,8,5,69,6,158.04110709999998,None,158.04110709999998,None,158.04110709999998,None,right,3.4693602000000396,158.09380299999998,None,158.04110709999998,None,161.5866638,None,002,010,2021_Jan_22_1130,contrast,2020.2.10,43.80652410563646,
0.3,8,6,70,1,161.7931408,None,161.7931408,None,161.7931408,None,left,0.895103000000006,161.8618283,None,161.7931408,None,162.78115249999996,None,002,010,2021_Jan_22_1130,contrast,2020.2.10,43.80652410563646,
0.35,8,7,71,2,162.99011989999997,None,162.99011989999997,None,162.99011989999997,None,left,1.255670500000008,163.0604555,None,162.99011989999997,None,164.3412133,None,002,010,2021_Jan_22_1130,contrast,2020.2.10,43.80652410563646,
0.55,9,0,72,6,164.5466727,None,164.5466727,None,164.5466727,None,right,0.6140141000000199,164.6150579,None,164.5466727,None,165.2537355,None,002,010,2021_Jan_22_1130,contrast,2020.2.10,43.80652410563646,
0.5,9,1,73,5,165.45945209999996,None,165.45945209999996,None,165.45945209999996,None,right,1.7557583999999906,165.5301389,None,165.45945209999996,None,167.30953139999997,None,002,010,2021_Jan_22_1130,contrast,2020.2.10,43.80652410563646,
0.6,9,2,74,7,167.5114056,None,167.5114056,None,167.5114056,None,right,1.4362167000000454,167.5820359,None,167.5114056,None,169.04229349999997,None,002,010,2021_Jan_22_1130,contrast,2020.2.10,43.80652410563646,
0.35,9,3,75,2,169.24736969999998,None,169.24736969999998,None,169.24736969999998,None,left,0.6930732000000148,169.31679709999997,None,169.24736969999998,None,170.0347177,None,002,010,2021_Jan_22_1130,contrast,2020.2.10,43.80652410563646,
0.45,9,4,76,4,170.2373662,None,170.2373662,None,170.2373662,None,right,1.0235093000000006,170.3100035,None,170.2373662,None,171.35684629999997,None,002,010,2021_Jan_22_1130,contrast,2020.2.10,43.80652410563646,
0.4,9,5,77,3,171.56655689999997,None,171.56655689999997,None,171.56655689999997,None,left,1.7624536999999805,171.63640759999998,None,171.56655689999997,None,173.4219301,None,002,010,2021_Jan_22_1130,contrast,2020.2.10,43.80652410563646,
0.25,9,6,78,0,173.6274644,None,173.6274644,None,173.6274644,None,left,0.7978481000000102,173.6957066,None,173.6274644,None,174.5187272,None,002,010,2021_Jan_22_1130,contrast,2020.2.10,43.80652410563646,
0.3,9,7,79,1,174.7215357,None,174.7215357,None,174.7215357,None,left,1.2280592000000183,174.79066699999998,None,174.7215357,None,176.04350829999998,None,002,010,2021_Jan_22_1130,contrast,2020.2.10,43.80652410563646,
0.55,10,0,80,6,176.24968839999997,None,176.24968839999997,None,176.24968839999997,None,right,0.48856499999999414,176.31940229999998,None,176.24968839999997,None,176.8349814,None,002,010,2021_Jan_22_1130,contrast,2020.2.10,43.80652410563646,
0.6,10,1,81,7,177.0393232,None,177.0393232,None,177.0393232,None,right,0.5313778999999954,177.1071708,None,177.0393232,None,177.66211299999998,None,002,010,2021_Jan_22_1130,contrast,2020.2.10,43.80652410563646,
0.25,10,2,82,0,177.8650829,None,177.8650829,None,177.8650829,None,left,0.8539008999999851,177.93464259999996,None,177.8650829,None,178.81488050000002,None,002,010,2021_Jan_22_1130,contrast,2020.2.10,43.80652410563646,
0.3,10,3,83,1,179.021339,None,179.021339,None,179.021339,None,left,1.1407608000000096,179.0926212,None,179.021339,None,180.25582070000002,None,002,010,2021_Jan_22_1130,contrast,2020.2.10,43.80652410563646,
0.5,10,4,84,5,180.4642055,None,180.4642055,None,180.4642055,None,right,0.5151860000000283,180.5336448,None,180.4642055,None,181.0722642,None,002,010,2021_Jan_22_1130,contrast,2020.2.10,43.80652410563646,
0.45,10,5,85,4,181.2746181,None,181.2746181,None,181.2746181,None,right,1.9974222000000168,181.3440862,None,181.2746181,None,183.3654935,None,002,010,2021_Jan_22_1130,contrast,2020.2.10,43.80652410563646,
0.4,10,6,86,3,183.5696105,None,183.5696105,None,183.5696105,None,left,0.9979789999999866,183.6397126,None,183.5696105,None,184.6608124,None,002,010,2021_Jan_22_1130,contrast,2020.2.10,43.80652410563646,
0.35,10,7,87,2,184.87178169999999,None,184.87178169999999,None,184.87178169999999,None,right,1.2761749999999665,184.94032949999996,None,184.87178169999999,None,186.23937769999998,None,002,010,2021_Jan_22_1130,contrast,2020.2.10,43.80652410563646,
0.6,11,0,88,7,186.4462401,None,186.4462401,None,186.4462401,None,right,0.6523166999999717,186.51673089999997,None,186.4462401,None,187.1939883,None,002,010,2021_Jan_22_1130,contrast,2020.2.10,43.80652410563646,
0.25,11,1,89,0,187.39698779999998,None,187.39698779999998,None,187.39698779999998,None,left,1.4556493999999702,187.46635909999998,None,187.39698779999998,None,188.94638829999997,None,002,010,2021_Jan_22_1130,contrast,2020.2.10,43.80652410563646,
0.45,11,2,90,4,189.1488372,None,189.1488372,None,189.1488372,None,right,0.6532096000000251,189.21807279999996,None,189.1488372,None,189.89539889999998,None,002,010,2021_Jan_22_1130,contrast,2020.2.10,43.80652410563646,
0.4,11,3,91,3,190.0988924,None,190.0988924,None,190.0988924,None,right,0.5457025999999701,190.16840529999996,None,190.0988924,None,190.7379993,None,002,010,2021_Jan_22_1130,contrast,2020.2.10,43.80652410563646,
0.35,11,4,92,2,190.9510459,None,190.9510459,None,190.9510459,None,right,0.5406806999999958,191.02140980000001,None,190.9510459,None,191.5863782,None,002,010,2021_Jan_22_1130,contrast,2020.2.10,43.80652410563646,
0.3,11,5,93,1,191.7897478,None,191.7897478,None,191.7897478,None,right,0.43153790000002346,191.85892819999998,None,191.7897478,None,192.31389789999997,None,002,010,2021_Jan_22_1130,contrast,2020.2.10,43.80652410563646,
0.5,11,6,94,5,192.5206963,None,192.5206963,None,192.5206963,None,right,0.6364153999999758,192.5905558,None,192.5206963,None,193.25074969999997,None,002,010,2021_Jan_22_1130,contrast,2020.2.10,43.80652410563646,
0.55,11,7,95,6,193.4659319,None,193.4659319,None,193.4659319,None,right,0.5489585999999917,193.5349602,None,193.4659319,None,194.10722849999996,None,002,010,2021_Jan_22_1130,contrast,2020.2.10,43.80652410563646,
0.45,12,0,96,4,194.31707719999997,None,194.31707719999997,None,194.31707719999997,None,right,0.4007299999999532,194.3909531,None,194.31707719999997,None,194.8187087,None,002,010,2021_Jan_22_1130,contrast,2020.2.10,43.80652410563646,
0.3,12,1,97,1,195.02749109999996,None,195.02749109999996,None,195.02749109999996,None,right,0.931523900000002,195.0983741,None,195.02749109999996,None,196.05331919999998,None,002,010,2021_Jan_22_1130,contrast,2020.2.10,43.80652410563646,
0.25,12,2,98,0,196.2573094,None,196.2573094,None,196.2573094,None,right,0.5591339000000062,196.3295726,None,196.2573094,None,196.9126061,None,002,010,2021_Jan_22_1130,contrast,2020.2.10,43.80652410563646,
0.35,12,3,99,2,197.12095829999998,None,197.12095829999998,None,197.12095829999998,None,right,1.2940757999999732,197.1905221,None,197.12095829999998,None,198.5079118,None,002,010,2021_Jan_22_1130,contrast,2020.2.10,43.80652410563646,
0.5,12,4,100,5,198.7111706,None,198.7111706,None,198.7111706,None,right,0.6987522000000013,198.78057789999997,None,198.7111706,None,199.50219449999997,None,002,010,2021_Jan_22_1130,contrast,2020.2.10,43.80652410563646,
0.4,12,5,101,3,199.7072389,None,199.7072389,None,199.7072389,None,right,0.719813600000009,199.77708759999996,None,199.7072389,None,200.5213776,None,002,010,2021_Jan_22_1130,contrast,2020.2.10,43.80652410563646,
0.6,12,6,102,7,200.72387099999997,None,200.72387099999997,None,200.72387099999997,None,right,1.3330980000000068,200.7931696,None,200.72387099999997,None,202.14890049999997,None,002,010,2021_Jan_22_1130,contrast,2020.2.10,43.80652410563646,
0.55,12,7,103,6,202.3531115,None,202.3531115,None,202.3531115,None,right,0.7538342999999941,202.42316039999997,None,202.3531115,None,203.201009,None,002,010,2021_Jan_22_1130,contrast,2020.2.10,43.80652410563646,
0.35,13,0,104,2,203.40457659999998,None,203.40457659999998,None,203.40457659999998,None,right,0.9746976000000132,203.47452069999997,None,203.40457659999998,None,204.47322809999997,None,002,010,2021_Jan_22_1130,contrast,2020.2.10,43.80652410563646,
0.3,13,1,105,1,204.6783314,None,204.6783314,None,204.6783314,None,left,5.234671300000002,204.74684759999997,None,204.6783314,None,210.00608139999997,None,002,010,2021_Jan_22_1130,contrast,2020.2.10,43.80652410563646,
0.25,13,2,106,0,210.2133506,None,210.2133506,None,210.2133506,None,left,0.9762647999999672,210.28584769999998,None,210.2133506,None,211.28613489999998,None,002,010,2021_Jan_22_1130,contrast,2020.2.10,43.80652410563646,
0.5,13,3,107,5,211.4869652,None,211.4869652,None,211.4869652,None,right,0.7187908999999877,211.55791729999999,None,211.4869652,None,212.2991811,None,002,010,2021_Jan_22_1130,contrast,2020.2.10,43.80652410563646,
0.6,13,4,108,7,212.50439739999996,None,212.50439739999996,None,212.50439739999996,None,right,0.9576230000000123,212.57521559999998,None,212.50439739999996,None,213.55755169999998,None,002,010,2021_Jan_22_1130,contrast,2020.2.10,43.80652410563646,
0.55,13,5,109,6,213.76463639999997,None,213.76463639999997,None,213.76463639999997,None,right,0.7466325000000325,213.8335141,None,213.76463639999997,None,214.60531959999997,None,002,010,2021_Jan_22_1130,contrast,2020.2.10,43.80652410563646,
0.4,13,6,110,3,214.81130889999997,None,214.81130889999997,None,214.81130889999997,None,left,3.0988035999999965,214.88496149999997,None,214.81130889999997,None,218.00810359999997,None,002,010,2021_Jan_22_1130,contrast,2020.2.10,43.80652410563646,
0.45,13,7,111,4,218.2261762,None,218.2261762,None,218.2261762,None,right,0.5645020000000045,218.29931799999997,None,218.2261762,None,218.8872232,None,002,010,2021_Jan_22_1130,contrast,2020.2.10,43.80652410563646,
0.25,14,0,112,0,219.0924091,None,219.0924091,None,219.0924091,None,left,0.6279155999999944,219.1622244,None,219.0924091,None,219.81442099999998,None,002,010,2021_Jan_22_1130,contrast,2020.2.10,43.80652410563646,
0.3,14,1,113,1,220.01871999999997,None,220.01871999999997,None,220.01871999999997,None,left,1.6745730000000094,220.0906754,None,220.01871999999997,None,221.78942389999997,None,002,010,2021_Jan_22_1130,contrast,2020.2.10,43.80652410563646,
0.35,14,2,114,2,221.99480489999996,None,221.99480489999996,None,221.99480489999996,None,left,0.7919853000000217,222.06406369999996,None,221.99480489999996,None,222.8798322,None,002,010,2021_Jan_22_1130,contrast,2020.2.10,43.80652410563646,
0.55,14,3,115,6,223.08210909999997,None,223.08210909999997,None,223.08210909999997,None,right,0.5204200000000014,223.15127209999997,None,223.08210909999997,None,223.6959696,None,002,010,2021_Jan_22_1130,contrast,2020.2.10,43.80652410563646,
0.6,14,4,116,7,223.90085440000001,None,223.90085440000001,None,223.90085440000001,None,right,0.6906739000000357,223.97368539999997,None,223.90085440000001,None,224.6877037,None,002,010,2021_Jan_22_1130,contrast,2020.2.10,43.80652410563646,
0.45,14,5,117,4,224.89680829999998,None,224.89680829999998,None,224.89680829999998,None,right,0.44247410000002674,224.966366,None,224.89680829999998,None,225.43313009999997,None,002,010,2021_Jan_22_1130,contrast,2020.2.10,43.80652410563646,
0.5,14,6,118,5,225.64030529999997,None,225.64030529999997,None,225.64030529999997,None,right,0.9084880000000339,225.71279369999996,None,225.64030529999997,None,226.6449126,None,002,010,2021_Jan_22_1130,contrast,2020.2.10,43.80652410563646,
0.4,14,7,119,3,226.85069929999997,None,226.85069929999997,None,226.85069929999997,None,right,1.5634097000000224,226.92204040000001,None,226.85069929999997,None,228.50949509999998,None,002,010,2021_Jan_22_1130,contrast,2020.2.10,43.80652410563646,
0.4,15,0,120,3,228.72565709999998,None,228.72565709999998,None,228.72565709999998,None,left,2.6790368000000058,228.79773419999998,None,228.72565709999998,None,231.50111679999998,None,002,010,2021_Jan_22_1130,contrast,2020.2.10,43.80652410563646,
0.25,15,1,121,0,231.70389919999997,None,231.70389919999997,None,231.70389919999997,None,left,1.2114046000000371,231.7728507,None,231.70389919999997,None,233.00839609999997,None,002,010,2021_Jan_22_1130,contrast,2020.2.10,43.80652410563646,
0.5,15,2,122,5,233.2116277,None,233.2116277,None,233.2116277,None,right,0.4660053000000062,233.28142939999998,None,233.2116277,None,233.77167479999997,None,002,010,2021_Jan_22_1130,contrast,2020.2.10,43.80652410563646,
0.3,15,3,123,1,233.98036009999998,None,233.98036009999998,None,233.98036009999998,None,right,4.518805199999974,234.04917749999998,None,233.98036009999998,None,238.5917723,None,002,010,2021_Jan_22_1130,contrast,2020.2.10,43.80652410563646,
0.45,15,4,124,4,238.8011864,None,238.8011864,None,238.8011864,None,right,1.62125309999999,238.8768637,None,238.8011864,None,240.5235619,None,002,010,2021_Jan_22_1130,contrast,2020.2.10,43.80652410563646,
0.55,15,5,125,6,240.728589,None,240.728589,None,240.728589,None,right,0.4884091999999782,240.79754709999997,None,240.728589,None,241.30966739999997,None,002,010,2021_Jan_22_1130,contrast,2020.2.10,43.80652410563646,
0.6,15,6,126,7,241.51147659999998,None,241.51147659999998,None,241.51147659999998,None,right,0.62237140000002,241.58168,None,241.51147659999998,None,242.22879719999997,None,002,010,2021_Jan_22_1130,contrast,2020.2.10,43.80652410563646,
0.35,15,7,127,2,242.4318885,None,242.4318885,None,242.4318885,None,right,2.738091099999963,242.49984439999997,None,242.4318885,None,245.26132539999998,None,002,010,2021_Jan_22_1130,contrast,2020.2.10,43.80652410563646,
0.5,16,0,128,5,245.46593589999998,None,245.46593589999998,None,245.46593589999998,None,right,0.5454631000000063,245.53662729999996,None,245.46593589999998,None,246.1068661,None,002,010,2021_Jan_22_1130,contrast,2020.2.10,43.80652410563646,
0.35,16,1,129,2,246.3087939,None,246.3087939,None,246.3087939,None,right,1.31400229999997,246.3817869,None,246.3087939,None,247.71919859999997,None,002,010,2021_Jan_22_1130,contrast,2020.2.10,43.80652410563646,
0.6,16,2,130,7,247.92694669999997,None,247.92694669999997,None,247.92694669999997,None,right,0.5234095000000138,247.99769609999998,None,247.92694669999997,None,248.545934,None,002,010,2021_Jan_22_1130,contrast,2020.2.10,43.80652410563646,
0.55,16,3,131,6,248.7488934,None,248.7488934,None,248.7488934,None,right,0.7754739000000086,248.82492179999997,None,248.7488934,None,249.62375120000002,None,002,010,2021_Jan_22_1130,contrast,2020.2.10,43.80652410563646,
0.3,16,4,132,1,249.82720029999996,None,249.82720029999996,None,249.82720029999996,None,left,1.1053979999999797,249.89644849999996,None,249.82720029999996,None,251.0262447,None,002,010,2021_Jan_22_1130,contrast,2020.2.10,43.80652410563646,
0.45,16,5,133,4,251.231445,None,251.231445,None,251.231445,None,right,0.588481599999966,251.30060249999997,None,251.231445,None,251.91390589999997,None,002,010,2021_Jan_22_1130,contrast,2020.2.10,43.80652410563646,
0.4,16,6,134,3,252.11741899999998,None,252.11741899999998,None,252.11741899999998,None,right,1.8727721999999858,252.18850709999998,None,252.11741899999998,None,254.0845625,None,002,010,2021_Jan_22_1130,contrast,2020.2.10,43.80652410563646,
0.25,16,7,135,0,254.290144,None,254.290144,None,254.290144,None,left,2.735392700000034,254.3603192,None,254.290144,None,257.1194982,None,002,010,2021_Jan_22_1130,contrast,2020.2.10,43.80652410563646,
0.35,17,0,136,2,257.3236381,None,257.3236381,None,257.3236381,None,right,1.535145,257.3929657,None,257.3236381,None,258.9522005,None,002,010,2021_Jan_22_1130,contrast,2020.2.10,43.80652410563646,
0.6,17,1,137,7,259.158616,None,259.158616,None,259.158616,None,right,0.49066770000001725,259.2275548,None,259.158616,None,259.7422489,None,002,010,2021_Jan_22_1130,contrast,2020.2.10,43.80652410563646,
0.25,17,2,138,0,259.94680919999996,None,259.94680919999996,None,259.94680919999996,None,left,0.9604473999999641,260.0148962,None,259.94680919999996,None,260.9988608,None,002,010,2021_Jan_22_1130,contrast,2020.2.10,43.80652410563646,
0.3,17,3,139,1,261.2037643,None,261.2037643,None,261.2037643,None,right,4.672646099999952,261.2714555,None,261.2037643,None,265.96733209999996,None,002,010,2021_Jan_22_1130,contrast,2020.2.10,43.80652410563646,
0.5,17,4,140,5,266.1698265,None,266.1698265,None,266.1698265,None,right,0.9556205999999747,266.2402859,None,266.1698265,None,267.22036429999997,None,002,010,2021_Jan_22_1130,contrast,2020.2.10,43.80652410563646,
0.4,17,5,141,3,267.4246655,None,267.4246655,None,267.4246655,None,right,1.8909684999999854,267.4946571,None,267.4246655,None,269.4096037,None,002,010,2021_Jan_22_1130,contrast,2020.2.10,43.80652410563646,
0.55,17,6,142,6,269.61266689999997,None,269.61266689999997,None,269.61266689999997,None,right,0.8829379000000017,269.6810046,None,269.61266689999997,None,270.5882396,None,002,010,2021_Jan_22_1130,contrast,2020.2.10,43.80652410563646,
0.45,17,7,143,4,270.7936661,None,270.7936661,None,270.7936661,None,right,0.8595842000000289,270.8670659,None,270.7936661,None,271.7506245,None,002,010,2021_Jan_22_1130,contrast,2020.2.10,43.80652410563646,
0.35,18,0,144,2,271.952311,None,271.952311,None,271.952311,None,left,1.1894002999999884,272.02373739999996,None,271.952311,None,273.236915,None,002,010,2021_Jan_22_1130,contrast,2020.2.10,43.80652410563646,
0.45,18,1,145,4,273.4423891,None,273.4423891,None,273.4423891,None,right,0.7694301000000223,273.5131285,None,273.4423891,None,274.3059613,None,002,010,2021_Jan_22_1130,contrast,2020.2.10,43.80652410563646,
0.55,18,2,146,6,274.508114,None,274.508114,None,274.508114,None,right,0.814857800000027,274.5786281,None,274.508114,None,275.41814569999997,None,002,010,2021_Jan_22_1130,contrast,2020.2.10,43.80652410563646,
0.5,18,3,147,5,275.62411449999996,None,275.62411449999996,None,275.62411449999996,None,right,0.9398253000000523,275.6938583,None,275.62411449999996,None,276.6575469,None,002,010,2021_Jan_22_1130,contrast,2020.2.10,43.80652410563646,
0.4,18,4,148,3,276.8701536,None,276.8701536,None,276.8701536,None,right,1.1486196000000177,276.9397581,None,276.8701536,None,278.1121165,None,002,010,2021_Jan_22_1130,contrast,2020.2.10,43.80652410563646,
0.3,18,5,149,1,278.3337484,None,278.3337484,None,278.3337484,None,right,5.3449937999999975,278.4043096,None,278.3337484,None,283.773988,None,002,010,2021_Jan_22_1130,contrast,2020.2.10,43.80652410563646,
0.6,18,6,150,7,283.9827138,None,283.9827138,None,283.9827138,None,right,0.5550820000000272,284.0555918,None,283.9827138,None,284.63502389999996,None,002,010,2021_Jan_22_1130,contrast,2020.2.10,43.80652410563646,
0.25,18,7,151,0,284.8458935,None,284.8458935,None,284.8458935,None,right,5.208324199999993,284.9173938,None,284.8458935,None,290.149814,None,002,010,2021_Jan_22_1130,contrast,2020.2.10,43.80652410563646,
0.4,19,0,152,3,290.3527917,None,290.3527917,None,290.3527917,None,right,3.4546642999999904,290.4214406,None,290.3527917,None,293.900286,None,002,010,2021_Jan_22_1130,contrast,2020.2.10,43.80652410563646,
0.5,19,1,153,5,294.1058776,None,294.1058776,None,294.1058776,None,right,0.7034661000000142,294.1761416,None,294.1058776,None,294.9034321,None,002,010,2021_Jan_22_1130,contrast,2020.2.10,43.80652410563646,
0.45,19,2,154,4,295.10815729999996,None,295.10815729999996,None,295.10815729999996,None,right,0.7985039000000143,295.17833509999997,None,295.10815729999996,None,296.001174,None,002,010,2021_Jan_22_1130,contrast,2020.2.10,43.80652410563646,
0.55,19,3,155,6,296.2043055,None,296.2043055,None,296.2043055,None,right,0.7936819999999898,296.2733905,None,296.2043055,None,297.09050909999996,None,002,010,2021_Jan_22_1130,contrast,2020.2.10,43.80652410563646,
0.25,19,4,156,0,297.2999673,None,297.2999673,None,297.2999673,None,left,3.9821469999999977,297.36865059999997,None,297.2999673,None,301.37462899999997,None,002,010,2021_Jan_22_1130,contrast,2020.2.10,43.80652410563646,
0.35,19,5,157,2,301.588795,None,301.588795,None,301.588795,None,right,1.7625702000000274,301.658208,None,301.588795,None,303.44527039999997,None,002,010,2021_Jan_22_1130,contrast,2020.2.10,43.80652410563646,
0.6,19,6,158,7,303.6483832,None,303.6483832,None,303.6483832,None,right,0.6020154999999932,303.7172088,None,303.6483832,None,304.34344089999996,None,002,010,2021_Jan_22_1130,contrast,2020.2.10,43.80652410563646,
0.3,19,7,159,1,304.54586009999997,None,304.54586009999997,None,304.54586009999997,None,right,1.4426309000000401,304.6162207,None,304.54586009999997,None,306.08266299999997,None,002,010,2021_Jan_22_1130,contrast,2020.2.10,43.80652410563646,
0.6,20,0,160,7,306.2888154,None,306.2888154,None,306.2888154,None,right,0.542938300000003,306.35846499999997,None,306.2888154,None,306.9246928,None,002,010,2021_Jan_22_1130,contrast,2020.2.10,43.80652410563646,
0.3,20,1,161,1,307.1288081,None,307.1288081,None,307.1288081,None,left,1.4844540999999936,307.2009944,None,307.1288081,None,308.71070249999997,None,002,010,2021_Jan_22_1130,contrast,2020.2.10,43.80652410563646,
0.25,20,2,162,0,308.92218729999996,None,308.92218729999996,None,308.92218729999996,None,left,1.118221300000016,308.9933009,None,308.92218729999996,None,310.135487,None,002,010,2021_Jan_22_1130,contrast,2020.2.10,43.80652410563646,
0.4,20,3,163,3,310.3386092,None,310.3386092,None,310.3386092,None,right,0.5405508999999711,310.4087911,None,310.3386092,None,310.9732856,None,002,010,2021_Jan_22_1130,contrast,2020.2.10,43.80652410563646,
0.5,20,4,164,5,311.1733986,None,311.1733986,None,311.1733986,None,right,0.42818690000001425,311.2442423,None,311.1733986,None,311.6968568,None,002,010,2021_Jan_22_1130,contrast,2020.2.10,43.80652410563646,
0.55,20,5,165,6,311.9086888,None,311.9086888,None,311.9086888,None,right,0.3794693000000393,311.97928939999997,None,311.9086888,None,312.3840145,None,002,010,2021_Jan_22_1130,contrast,2020.2.10,43.80652410563646,
0.45,20,6,166,4,312.5932345,None,312.5932345,None,312.5932345,None,right,0.4154214000000138,312.6614383,None,312.5932345,None,313.0990945,None,002,010,2021_Jan_22_1130,contrast,2020.2.10,43.80652410563646,
0.35,20,7,167,2,313.31230669999997,None,313.31230669999997,None,313.31230669999997,None,right,2.3657488000000058,313.3840709,None,313.31230669999997,None,315.7725748,None,002,010,2021_Jan_22_1130,contrast,2020.2.10,43.80652410563646,
0.6,21,0,168,7,315.97599249999996,None,315.97599249999996,None,315.97599249999996,None,right,0.6483637000000044,316.044267,None,315.97599249999996,None,316.7170378,None,002,010,2021_Jan_22_1130,contrast,2020.2.10,43.80652410563646,
0.25,21,1,169,0,316.92350419999997,None,316.92350419999997,None,316.92350419999997,None,left,1.3905067999999687,316.9907482,None,316.92350419999997,None,318.4057932,None,002,010,2021_Jan_22_1130,contrast,2020.2.10,43.80652410563646,
0.35,21,2,170,2,318.6100224,None,318.6100224,None,318.6100224,None,right,1.1128732999999897,318.6798718,None,318.6100224,None,319.8161684,None,002,010,2021_Jan_22_1130,contrast,2020.2.10,43.80652410563646,
0.3,21,3,171,1,320.0227765,None,320.0227765,None,320.0227765,None,right,7.676869500000066,320.0919511,None,320.0227765,None,327.79276739999995,None,002,010,2021_Jan_22_1130,contrast,2020.2.10,43.80652410563646,
0.45,21,4,172,4,327.9971182,None,327.9971182,None,327.9971182,None,right,0.7407871999999998,328.0657611,None,327.9971182,None,328.8316647,None,002,010,2021_Jan_22_1130,contrast,2020.2.10,43.80652410563646,
0.4,21,5,173,3,329.0358931,None,329.0358931,None,329.0358931,None,right,1.837285100000031,329.10688339999996,None,329.0358931,None,330.9679454,None,002,010,2021_Jan_22_1130,contrast,2020.2.10,43.80652410563646,
0.5,21,6,174,5,331.1717173,None,331.1717173,None,331.1717173,None,right,0.9435674000000063,331.24144570000004,None,331.1717173,None,332.2097217,None,002,010,2021_Jan_22_1130,contrast,2020.2.10,43.80652410563646,
0.55,21,7,175,6,332.41014749999994,None,332.41014749999994,None,332.41014749999994,None,right,0.7517576999999847,332.4791048,None,332.41014749999994,None,333.25467139999995,None,002,010,2021_Jan_22_1130,contrast,2020.2.10,43.80652410563646,
0.35,22,0,176,2,333.4590714,None,333.4590714,None,333.4590714,None,right,4.600882400000046,333.5271508,None,333.4590714,None,338.15275349999996,None,002,010,2021_Jan_22_1130,contrast,2020.2.10,43.80652410563646,
0.6,22,1,177,7,338.3621609,None,338.3621609,None,338.3621609,None,right,0.7889377000000195,338.4419433,None,338.3621609,None,339.25354550000003,None,002,010,2021_Jan_22_1130,contrast,2020.2.10,43.80652410563646,
0.45,22,2,178,4,339.4602336,None,339.4602336,None,339.4602336,None,right,0.8979972000000771,339.5293258,None,339.4602336,None,340.45159099999995,None,002,010,2021_Jan_22_1130,contrast,2020.2.10,43.80652410563646,
0.55,22,3,179,6,340.656311,None,340.656311,None,340.656311,None,right,1.0532921000000215,340.72638739999996,None,340.656311,None,341.8047283,None,002,010,2021_Jan_22_1130,contrast,2020.2.10,43.80652410563646,
0.5,22,4,180,5,342.00966779999993,None,342.00966779999993,None,342.00966779999993,None,right,0.8925733999999466,342.0788081,None,342.00966779999993,None,342.99509859999995,None,002,010,2021_Jan_22_1130,contrast,2020.2.10,43.80652410563646,
0.3,22,5,181,1,343.20005039999995,None,343.20005039999995,None,343.20005039999995,None,left,3.592916800000012,343.27055179999996,None,343.20005039999995,None,346.8875654,None,002,010,2021_Jan_22_1130,contrast,2020.2.10,43.80652410563646,
0.4,22,6,182,3,347.09093839999997,None,347.09093839999997,None,347.09093839999997,None,right,0.909770299999991,347.1598433,None,347.09093839999997,None,348.09449490000003,None,002,010,2021_Jan_22_1130,contrast,2020.2.10,43.80652410563646,
0.25,22,7,183,0,348.2974751,None,348.2974751,None,348.2974751,None,right,1.9531771999999137,348.3690333,None,348.2974751,None,350.3458609,None,002,010,2021_Jan_22_1130,contrast,2020.2.10,43.80652410563646,
0.35,23,0,184,2,350.55469679999993,None,350.55469679999993,None,350.55469679999993,None,right,1.2247032000000218,350.6245227,None,350.55469679999993,None,351.87359499999997,None,002,010,2021_Jan_22_1130,contrast,2020.2.10,43.80652410563646,
0.5,23,1,185,5,352.08215089999993,None,352.08215089999993,None,352.08215089999993,None,right,0.8077295000000504,352.15190449999994,None,352.08215089999993,None,352.9839423,None,002,010,2021_Jan_22_1130,contrast,2020.2.10,43.80652410563646,
0.55,23,2,186,6,353.18660930000004,None,353.18660930000004,None,353.18660930000004,None,right,0.8796303000000307,353.25855469999993,None,353.18660930000004,None,354.16225149999997,None,002,010,2021_Jan_22_1130,contrast,2020.2.10,43.80652410563646,
0.3,23,3,187,1,354.36330430000004,None,354.36330430000004,None,354.36330430000004,None,right,1.6176382999999532,354.4370766,None,354.36330430000004,None,356.078058,None,002,010,2021_Jan_22_1130,contrast,2020.2.10,43.80652410563646,
0.25,23,4,188,0,356.2843572,None,356.2843572,None,356.2843572,None,left,1.3134816000000455,356.35269239999997,None,356.2843572,None,357.68965729999996,None,002,010,2021_Jan_22_1130,contrast,2020.2.10,43.80652410563646,
0.4,23,5,189,3,357.89676790000004,None,357.89676790000004,None,357.89676790000004,None,right,0.5913024000000178,357.9683677,None,357.89676790000004,None,358.58402069999994,None,002,010,2021_Jan_22_1130,contrast,2020.2.10,43.80652410563646,
0.45,23,6,190,4,358.78837289999996,None,358.78837289999996,None,358.78837289999996,None,right,0.6343701000000692,358.8624808,None,358.78837289999996,None,359.52029339999996,None,002,010,2021_Jan_22_1130,contrast,2020.2.10,43.80652410563646,
0.6,23,7,191,7,359.72490409999995,None,359.72490409999995,None,359.72490409999995,None,right,0.5612980000000789,359.79594519999995,None,359.72490409999995,None,360.38063370000003,None,002,010,2021_Jan_22_1130,contrast,2020.2.10,43.80652410563646,
0.4,24,0,192,3,360.58410699999996,None,360.58410699999996,None,360.58410699999996,None,right,0.6267999000000373,360.65470909999993,None,360.58410699999996,None,361.30553560000004,None,002,010,2021_Jan_22_1130,contrast,2020.2.10,43.80652410563646,
0.35,24,1,193,2,361.50781620000004,None,361.50781620000004,None,361.50781620000004,None,right,0.5118330000000242,361.5774197,None,361.50781620000004,None,362.11408190000003,None,002,010,2021_Jan_22_1130,contrast,2020.2.10,43.80652410563646,
0.55,24,2,194,6,362.31535709999997,None,362.31535709999997,None,362.31535709999997,None,right,0.4914929999999913,362.38421880000004,None,362.31535709999997,None,362.8994693,None,002,010,2021_Jan_22_1130,contrast,2020.2.10,43.80652410563646,
0.25,24,3,195,0,363.101618,None,363.101618,None,363.101618,None,left,1.8382031999999526,363.17073509999994,None,363.101618,None,365.0325892,None,002,010,2021_Jan_22_1130,contrast,2020.2.10,43.80652410563646,
0.45,24,4,196,4,365.23568759999995,None,365.23568759999995,None,365.23568759999995,None,right,0.5144233999999415,365.3049557,None,365.23568759999995,None,365.84337579999993,None,002,010,2021_Jan_22_1130,contrast,2020.2.10,43.80652410563646,
0.3,24,5,197,1,366.0466724,None,366.0466724,None,366.0466724,None,right,0.6209140999999363,366.11805499999997,None,366.0466724,None,366.7642338,None,002,010,2021_Jan_22_1130,contrast,2020.2.10,43.80652410563646,
0.5,24,6,198,5,366.97175109999995,None,366.97175109999995,None,366.97175109999995,None,right,0.7533835000000408,367.04033,None,366.97175109999995,None,367.8171226,None,002,010,2021_Jan_22_1130,contrast,2020.2.10,43.80652410563646,
0.6,24,7,199,7,368.02266549999996,None,368.02266549999996,None,368.02266549999996,None,right,1.3006597000000966,368.09336460000003,None,368.02266549999996,None,369.4207085,None,002,010,2021_Jan_22_1130,contrast,2020.2.10,43.80652410563646,
0.4,25,0,200,3,369.62633809999994,None,369.62633809999994,None,369.62633809999994,None,right,1.1330040999999937,369.69595409999994,None,369.62633809999994,None,370.85607079999994,None,002,010,2021_Jan_22_1130,contrast,2020.2.10,43.80652410563646,
0.6,25,1,201,7,371.06131149999993,None,371.06131149999993,None,371.06131149999993,None,right,0.7864524999999958,371.1294337,None,371.06131149999993,None,371.93917170000003,None,002,010,2021_Jan_22_1130,contrast,2020.2.10,43.80652410563646,
0.25,25,2,202,0,372.14548959999996,None,372.14548959999996,None,372.14548959999996,None,left,1.233274100000017,372.21240229999995,None,372.14548959999996,None,373.46982380000003,None,002,010,2021_Jan_22_1130,contrast,2020.2.10,43.80652410563646,
0.5,25,3,203,5,373.6864887,None,373.6864887,None,373.6864887,None,right,0.5610717000000705,373.75568749999996,None,373.6864887,None,374.34068199999996,None,002,010,2021_Jan_22_1130,contrast,2020.2.10,43.80652410563646,
0.55,25,4,204,6,374.54561499999994,None,374.54561499999994,None,374.54561499999994,None,right,0.46902109999996355,374.61661269999996,None,374.54561499999994,None,375.1094728,None,002,010,2021_Jan_22_1130,contrast,2020.2.10,43.80652410563646,
0.45,25,5,205,4,375.3124872,None,375.3124872,None,375.3124872,None,right,0.5121441000000004,375.38271719999995,None,375.3124872,None,375.9177977,None,002,010,2021_Jan_22_1130,contrast,2020.2.10,43.80652410563646,
0.35,25,6,206,2,376.12129439999995,None,376.12129439999995,None,376.12129439999995,None,right,1.9197760999999218,376.1926487,None,376.12129439999995,None,378.13609879999996,None,002,010,2021_Jan_22_1130,contrast,2020.2.10,43.80652410563646,
0.3,25,7,207,1,378.3449738,None,378.3449738,None,378.3449738,None,right,1.0172873000000209,378.41406950000004,None,378.3449738,None,379.4562292,None,002,010,2021_Jan_22_1130,contrast,2020.2.10,43.80652410563646,
0.25,26,0,208,0,379.66172779999994,None,379.66172779999994,None,379.66172779999994,None,right,2.7831076999999596,379.73152539999995,None,379.66172779999994,None,382.53870809999995,None,002,010,2021_Jan_22_1130,contrast,2020.2.10,43.80652410563646,
0.55,26,1,209,6,382.7415712,None,382.7415712,None,382.7415712,None,right,0.5173613000000614,382.8109896,None,382.7415712,None,383.3518846,None,002,010,2021_Jan_22_1130,contrast,2020.2.10,43.80652410563646,
0.3,26,2,210,1,383.55567790000003,None,383.55567790000003,None,383.55567790000003,None,right,0.9092968000001065,383.62586719999996,None,383.55567790000003,None,384.5581696,None,002,010,2021_Jan_22_1130,contrast,2020.2.10,43.80652410563646,
0.4,26,3,211,3,384.7635482,None,384.7635482,None,384.7635482,None,right,0.751431000000025,384.83246460000004,None,384.7635482,None,385.6074597,None,002,010,2021_Jan_22_1130,contrast,2020.2.10,43.80652410563646,
0.45,26,4,212,4,385.8129723,None,385.8129723,None,385.8129723,None,right,1.1668280999999752,385.88355959999996,None,385.8129723,None,387.0733945,None,002,010,2021_Jan_22_1130,contrast,2020.2.10,43.80652410563646,
0.6,26,5,213,7,387.2763315,None,387.2763315,None,387.2763315,None,right,0.48760040000001936,387.34756909999993,None,387.2763315,None,387.85947059999995,None,002,010,2021_Jan_22_1130,contrast,2020.2.10,43.80652410563646,
0.5,26,6,214,5,388.0617877,None,388.0617877,None,388.0617877,None,right,0.6104450999999926,388.13632519999993,None,388.0617877,None,388.77097269999996,None,002,010,2021_Jan_22_1130,contrast,2020.2.10,43.80652410563646,
0.35,26,7,215,2,388.98162069999995,None,388.98162069999995,None,388.98162069999995,None,left,0.8562703999999712,389.0516022,None,388.98162069999995,None,389.9327097,None,002,010,2021_Jan_22_1130,contrast,2020.2.10,43.80652410563646,
0.6,27,0,216,7,390.1371767,None,390.1371767,None,390.1371767,None,right,0.6092767999999751,390.2055121,None,390.1371767,None,390.83873669999997,None,002,010,2021_Jan_22_1130,contrast,2020.2.10,43.80652410563646,
0.35,27,1,217,2,391.0485378,None,391.0485378,None,391.0485378,None,right,2.87392490000002,391.1184857,None,391.0485378,None,394.0153105,None,002,010,2021_Jan_22_1130,contrast,2020.2.10,43.80652410563646,
0.5,27,2,218,5,394.2196922,None,394.2196922,None,394.2196922,None,right,0.8240733999999748,394.28831310000004,None,394.2196922,None,395.1364144,None,002,010,2021_Jan_22_1130,contrast,2020.2.10,43.80652410563646,
0.25,27,3,219,0,395.3401008,None,395.3401008,None,395.3401008,None,left,1.5833151000000498,395.4108753,None,395.3401008,None,397.0217359,None,002,010,2021_Jan_22_1130,contrast,2020.2.10,43.80652410563646,
0.4,27,4,220,3,397.22396339999995,None,397.22396339999995,None,397.22396339999995,None,right,0.5545700999999781,397.2937979,None,397.22396339999995,None,397.87177519999995,None,002,010,2021_Jan_22_1130,contrast,2020.2.10,43.80652410563646,
0.3,27,5,221,1,398.0779878,None,398.0779878,None,398.0779878,None,left,1.1250792999999248,398.14738270000004,None,398.0779878,None,399.29670200000004,None,002,010,2021_Jan_22_1130,contrast,2020.2.10,43.80652410563646,
0.45,27,6,222,4,399.50147450000003,None,399.50147450000003,None,399.50147450000003,None,right,0.6457346999999345,399.5699967,None,399.50147450000003,None,400.23889579999997,None,002,010,2021_Jan_22_1130,contrast,2020.2.10,43.80652410563646,
0.55,27,7,223,6,400.44428780000004,None,400.44428780000004,None,400.44428780000004,None,right,0.5434476000000359,400.51340880000004,None,400.44428780000004,None,401.0812192,None,002,010,2021_Jan_22_1130,contrast,2020.2.10,43.80652410563646,
0.6,28,0,224,7,401.28957499999996,None,401.28957499999996,None,401.28957499999996,None,right,0.5591885999999704,401.35754719999994,None,401.28957499999996,None,401.9416266,None,002,010,2021_Jan_22_1130,contrast,2020.2.10,43.80652410563646,
0.45,28,1,225,4,402.1444015,None,402.1444015,None,402.1444015,None,right,1.548326999999972,402.21360139999996,None,402.1444015,None,403.7862092,None,002,010,2021_Jan_22_1130,contrast,2020.2.10,43.80652410563646,
0.4,28,2,226,3,403.9905173,None,403.9905173,None,403.9905173,None,left,0.6367456000000402,404.0653444,None,403.9905173,None,404.72673719999995,None,002,010,2021_Jan_22_1130,contrast,2020.2.10,43.80652410563646,
0.25,28,3,227,0,404.9407272,None,404.9407272,None,404.9407272,None,left,1.1335636000000022,405.008172,None,404.9407272,None,406.1658107,None,002,010,2021_Jan_22_1130,contrast,2020.2.10,43.80652410563646,
0.3,28,4,228,1,406.3720907,None,406.3720907,None,406.3720907,None,left,1.2155780000000505,406.44168229999997,None,406.3720907,None,407.6813458,None,002,010,2021_Jan_22_1130,contrast,2020.2.10,43.80652410563646,
0.35,28,5,229,2,407.8841753,None,407.8841753,None,407.8841753,None,right,0.8128570999999738,407.9537902,None,407.8841753,None,408.7902264,None,002,010,2021_Jan_22_1130,contrast,2020.2.10,43.80652410563646,
0.5,28,6,230,5,408.99817019999995,None,408.99817019999995,None,408.99817019999995,None,right,0.7241712999999663,409.06666409999997,None,408.99817019999995,None,409.8149802,None,002,010,2021_Jan_22_1130,contrast,2020.2.10,43.80652410563646,
0.55,28,7,231,6,410.0176548,None,410.0176548,None,410.0176548,None,right,0.5392505999999457,410.08519789999997,None,410.0176548,None,410.64886740000003,None,002,010,2021_Jan_22_1130,contrast,2020.2.10,43.80652410563646,
0.45,29,0,232,4,410.8518052,None,410.8518052,None,410.8518052,None,right,0.7023259999999709,410.9254259,None,410.8518052,None,411.650962,None,002,010,2021_Jan_22_1130,contrast,2020.2.10,43.80652410563646,
0.5,29,1,233,5,411.8565143,None,411.8565143,None,411.8565143,None,right,0.6998349000000417,411.92563879999994,None,411.8565143,None,412.6504094,None,002,010,2021_Jan_22_1130,contrast,2020.2.10,43.80652410563646,
0.6,29,2,234,7,412.87777909999994,None,412.87777909999994,None,412.87777909999994,None,right,0.7277561999999307,412.92537179999994,None,412.87777909999994,None,413.6760539,None,002,010,2021_Jan_22_1130,contrast,2020.2.10,43.80652410563646,
0.25,29,3,235,0,413.8825013,None,413.8825013,None,413.8825013,None,left,0.8704519000000346,413.95227529999994,None,413.8825013,None,414.84692279999996,None,002,010,2021_Jan_22_1130,contrast,2020.2.10,43.80652410563646,
0.3,29,4,236,1,415.05902910000003,None,415.05902910000003,None,415.05902910000003,None,left,0.9426144999999906,415.12879630000003,None,415.05902910000003,None,416.09460989999997,None,002,010,2021_Jan_22_1130,contrast,2020.2.10,43.80652410563646,
0.35,29,5,237,2,416.29940930000004,None,416.29940930000004,None,416.29940930000004,None,left,0.6055413000000271,416.3703182,None,416.29940930000004,None,416.99922169999996,None,002,010,2021_Jan_22_1130,contrast,2020.2.10,43.80652410563646,
0.55,29,6,238,6,417.2065901,None,417.2065901,None,417.2065901,None,right,0.4686303000000862,417.27577030000003,None,417.2065901,None,417.76745779999993,None,002,010,2021_Jan_22_1130,contrast,2020.2.10,43.80652410563646,
0.4,29,7,239,3,417.9715098,None,417.9715098,None,417.9715098,None,right,0.39528089999998883,418.0417796,None,417.9715098,None,418.4599659,None,002,010,2021_Jan_22_1130,contrast,2020.2.10,43.80652410563646,
