rgb_luminance,trials.thisRepN,trials.thisTrialN,trials.thisN,trials.thisIndex,patch_background.started,patch_background.stopped,patch_foreground.started,patch_foreground.stopped,patch_test.started,patch_test.stopped,key_response.keys,key_response.rt,key_response.started,key_response.stopped,text_task.started,text_task.stopped,text.started,text.stopped,participant,session,date,expName,psychopyVersion,frameRate,
0.45,0,0,0,4,38.63161630000104,None,38.63161630000104,None,38.63161630000104,None,left,58.36645490000228,38.71949599999789,None,38.63161630000104,None,97.11210769999889,None,003,006,2021_Jan_21_2303,contrast,2020.2.10,None,
0.6,0,1,1,7,97.64467859999786,None,97.64467859999786,None,97.64467859999786,None,right,5.996464100000594,97.72286189999795,None,97.64467859999786,None,103.74596349999774,None,003,006,2021_Jan_21_2303,contrast,2020.2.10,None,
0.55,0,2,2,6,104.24903110000014,None,104.24903110000014,None,104.24903110000014,None,right,4.072895699999208,104.33041039999807,None,104.24903110000014,None,108.43023790000007,None,003,006,2021_Jan_21_2303,contrast,2020.2.10,None,
0.5,0,3,3,5,108.93612329999814,None,108.93612329999814,None,108.93612329999814,None,right,4.706738900000346,109.01753520000057,None,108.93612329999814,None,113.75136199999906,None,003,006,2021_Jan_21_2303,contrast,2020.2.10,None,
0.35,0,4,4,2,114.27322339999955,None,114.27322339999955,None,114.27322339999955,None,left,3.850809699997626,114.35464959999808,None,114.27322339999955,None,118.23335199999929,None,003,006,2021_Jan_21_2303,contrast,2020.2.10,None,
0.25,0,5,5,0,118.73966110000038,None,118.73966110000038,None,118.73966110000038,None,left,7.03206180000052,118.81603019999966,None,118.73966110000038,None,125.87396240000089,None,003,006,2021_Jan_21_2303,contrast,2020.2.10,None,
0.3,0,6,6,1,126.39315879999776,None,126.39315879999776,None,126.39315879999776,None,right,6.570028199999797,126.46887380000044,None,126.39315879999776,None,133.0636932999987,None,003,006,2021_Jan_21_2303,contrast,2020.2.10,None,
0.4,0,7,7,3,133.58173929999975,None,133.58173929999975,None,133.58173929999975,None,left,5.556357699999353,133.6589903999993,None,133.58173929999975,None,139.2399951999978,None,003,006,2021_Jan_21_2303,contrast,2020.2.10,None,
0.55,1,0,8,6,139.76592700000037,None,139.76592700000037,None,139.76592700000037,None,right,3.7352166999990004,139.8398840000009,None,139.76592700000037,None,143.60191009999835,None,003,006,2021_Jan_21_2303,contrast,2020.2.10,None,
0.45,1,1,9,4,144.12604339999962,None,144.12604339999962,None,144.12604339999962,None,right,3.014532400000462,144.19996600000013,None,144.12604339999962,None,147.24089959999765,None,003,006,2021_Jan_21_2303,contrast,2020.2.10,None,
0.35,1,2,10,2,147.74824399999852,None,147.74824399999852,None,147.74824399999852,None,left,4.081838599999173,147.82390619999933,None,147.74824399999852,None,151.93083719999777,None,003,006,2021_Jan_21_2303,contrast,2020.2.10,None,
0.25,1,3,11,0,152.46138789999895,None,152.46138789999895,None,152.46138789999895,None,right,2.4326185999998415,152.53760119999788,None,152.46138789999895,None,154.99830529999963,None,003,006,2021_Jan_21_2303,contrast,2020.2.10,None,
0.5,1,4,12,5,155.50986120000016,None,155.50986120000016,None,155.50986120000016,None,right,3.1906731000017317,155.58677589999934,None,155.50986120000016,None,158.80370159999802,None,003,006,2021_Jan_21_2303,contrast,2020.2.10,None,
0.3,1,5,13,1,159.32385539999814,None,159.32385539999814,None,159.32385539999814,None,left,2.380510000002687,159.4025311999976,None,159.32385539999814,None,161.80989359999876,None,003,006,2021_Jan_21_2303,contrast,2020.2.10,None,
0.4,1,6,14,3,162.32829180000044,None,162.32829180000044,None,162.32829180000044,None,right,2.3304242999984126,162.40913290000026,None,162.32829180000044,None,164.77437909999935,None,003,006,2021_Jan_21_2303,contrast,2020.2.10,None,
0.6,1,7,15,7,165.29263349999746,None,165.29263349999746,None,165.29263349999746,None,right,2.7155654999987746,165.3680424999984,None,165.29263349999746,None,168.10942480000085,None,003,006,2021_Jan_21_2303,contrast,2020.2.10,None,
0.25,2,0,16,0,168.6314343999984,None,168.6314343999984,None,168.6314343999984,None,left,2.6141005999998015,168.71027709999908,None,168.6314343999984,None,171.35126870000022,None,003,006,2021_Jan_21_2303,contrast,2020.2.10,None,
0.55,2,1,17,6,171.87054269999862,None,171.87054269999862,None,171.87054269999862,None,right,4.398397100001603,171.94757829999799,None,171.87054269999862,None,176.37105800000063,None,003,006,2021_Jan_21_2303,contrast,2020.2.10,None,
0.3,2,2,18,1,176.8779132999989,None,176.8779132999989,None,176.8779132999989,None,right,5.260638299998391,176.9538493,None,176.8779132999989,None,182.24328070000047,None,003,006,2021_Jan_21_2303,contrast,2020.2.10,None,
0.35,2,3,19,2,182.7633199999982,None,182.7633199999982,None,182.7633199999982,None,left,7.3718330999981845,182.84066399999938,None,182.7633199999982,None,190.23970499999996,None,003,006,2021_Jan_21_2303,contrast,2020.2.10,None,
0.4,2,4,20,3,190.76575450000018,None,190.76575450000018,None,190.76575450000018,None,left,8.810908199997357,190.85416540000006,None,190.76575450000018,None,199.69205560000046,None,003,006,2021_Jan_21_2303,contrast,2020.2.10,None,
0.45,2,5,21,4,200.20036179999806,None,200.20036179999806,None,200.20036179999806,None,right,3.753468300001259,200.2745165999986,None,200.20036179999806,None,204.05283670000063,None,003,006,2021_Jan_21_2303,contrast,2020.2.10,None,
0.5,2,6,22,5,204.56885390000025,None,204.56885390000025,None,204.56885390000025,None,right,14.495834800000011,204.64645539999765,None,204.56885390000025,None,219.16965619999974,None,003,006,2021_Jan_21_2303,contrast,2020.2.10,None,
0.6,2,7,23,7,219.69042609999815,None,219.69042609999815,None,219.69042609999815,None,right,3.6243862000010267,219.76705329999822,None,219.69042609999815,None,223.41604200000074,None,003,006,2021_Jan_21_2303,contrast,2020.2.10,None,
0.35,3,0,24,2,223.939286599998,None,223.939286599998,None,223.939286599998,None,left,3.2056249999986903,224.0161119000004,None,223.939286599998,None,227.24803650000104,None,003,006,2021_Jan_21_2303,contrast,2020.2.10,None,
0.45,3,1,25,4,227.7702074000008,None,227.7702074000008,None,227.7702074000008,None,right,3.3776625000027707,227.8443550000011,None,227.7702074000008,None,231.24813809999978,None,003,006,2021_Jan_21_2303,contrast,2020.2.10,None,
0.3,3,2,26,1,231.7711022000003,None,231.7711022000003,None,231.7711022000003,None,right,15.438520900002914,231.84580020000067,None,231.7711022000003,None,247.31387729999915,None,003,006,2021_Jan_21_2303,contrast,2020.2.10,None,
0.5,3,3,27,5,247.83692059999885,None,247.83692059999885,None,247.83692059999885,None,right,4.295834299999115,247.91466149999906,None,247.83692059999885,None,252.23501919999762,None,003,006,2021_Jan_21_2303,contrast,2020.2.10,None,
0.25,3,4,28,0,252.7496973999987,None,252.7496973999987,None,252.7496973999987,None,right,7.005098599998746,252.82536679999976,None,252.7496973999987,None,259.85745609999867,None,003,006,2021_Jan_21_2303,contrast,2020.2.10,None,
0.55,3,5,29,6,260.3746739999988,None,260.3746739999988,None,260.3746739999988,None,right,2.080857400000241,260.4576350999996,None,260.3746739999988,None,262.56437319999895,None,003,006,2021_Jan_21_2303,contrast,2020.2.10,None,
0.4,3,6,30,3,263.08238730000085,None,263.08238730000085,None,263.08238730000085,None,right,3.1657532999997784,263.1627516000008,None,263.08238730000085,None,266.3538695999996,None,003,006,2021_Jan_21_2303,contrast,2020.2.10,None,
0.6,3,7,31,7,266.8747072999977,None,266.8747072999977,None,266.8747072999977,None,right,4.762728300000163,266.95346399999835,None,266.8747072999977,None,271.74208609999914,None,003,006,2021_Jan_21_2303,contrast,2020.2.10,None,
0.25,4,0,32,0,272.2557902999979,None,272.2557902999979,None,272.2557902999979,None,right,6.99648679999882,272.3362546999997,None,272.2557902999979,None,279.3574867999996,None,003,006,2021_Jan_21_2303,contrast,2020.2.10,None,
0.55,4,1,33,6,279.86911189999955,None,279.86911189999955,None,279.86911189999955,None,right,4.78244469999845,279.9476208999986,None,279.86911189999955,None,284.7557639999977,None,003,006,2021_Jan_21_2303,contrast,2020.2.10,None,
0.35,4,2,34,2,285.2637891999984,None,285.2637891999984,None,285.2637891999984,None,right,7.102588800000376,285.369963000001,None,285.2637891999984,None,292.49801500000103,None,003,006,2021_Jan_21_2303,contrast,2020.2.10,None,
0.5,4,3,35,5,293.0317052999999,None,293.0317052999999,None,293.0317052999999,None,right,3.927358099997946,293.10824149999826,None,293.0317052999999,None,297.06031280000025,None,003,006,2021_Jan_21_2303,contrast,2020.2.10,None,
0.6,4,4,36,7,297.5848464999981,None,297.5848464999981,None,297.5848464999981,None,right,6.745471400001406,297.66110330000083,None,297.5848464999981,None,304.43251489999966,None,003,006,2021_Jan_21_2303,contrast,2020.2.10,None,
0.4,4,5,37,3,304.94364009999845,None,304.94364009999845,None,304.94364009999845,None,right,11.630406700001913,305.0248962000005,None,304.94364009999845,None,316.68245509999906,None,003,006,2021_Jan_21_2303,contrast,2020.2.10,None,
0.45,4,6,38,4,317.1893901000003,None,317.1893901000003,None,317.1893901000003,None,right,6.579547299999831,317.26647799999773,None,317.1893901000003,None,323.87231769999926,None,003,006,2021_Jan_21_2303,contrast,2020.2.10,None,
0.3,4,7,39,1,324.37531319999835,None,324.37531319999835,None,324.37531319999835,None,right,21.81090419999964,324.4720414000003,None,324.37531319999835,None,346.310386000001,None,003,006,2021_Jan_21_2303,contrast,2020.2.10,None,
0.4,5,0,40,3,346.8164930999992,None,346.8164930999992,None,346.8164930999992,None,right,1.8794133999981568,346.89326040000014,None,346.8164930999992,None,348.7970166999985,None,003,006,2021_Jan_21_2303,contrast,2020.2.10,None,
0.35,5,1,41,2,349.3087837999992,None,349.3087837999992,None,349.3087837999992,None,left,2.277638700001262,349.3840707999989,None,349.3087837999992,None,351.68829840000035,None,003,006,2021_Jan_21_2303,contrast,2020.2.10,None,
0.5,5,2,42,5,352.1920847000001,None,352.1920847000001,None,352.1920847000001,None,right,5.077287799998885,352.2667423999992,None,352.1920847000001,None,357.36850760000016,None,003,006,2021_Jan_21_2303,contrast,2020.2.10,None,
0.3,5,3,43,1,357.8935754999984,None,357.8935754999984,None,357.8935754999984,None,left,3.308139699998719,357.97080350000033,None,357.8935754999984,None,361.3080919999993,None,003,006,2021_Jan_21_2303,contrast,2020.2.10,None,
0.6,5,4,44,7,361.80876530000023,None,361.80876530000023,None,361.80876530000023,None,right,3.464577900002041,361.8836611000006,None,361.80876530000023,None,365.3738655999987,None,003,006,2021_Jan_21_2303,contrast,2020.2.10,None,
0.25,5,5,45,0,365.89527950000047,None,365.89527950000047,None,365.89527950000047,None,left,3.5009365000005346,365.97227609999754,None,365.89527950000047,None,369.50020129999757,None,003,006,2021_Jan_21_2303,contrast,2020.2.10,None,
0.55,5,6,46,6,370.0241351000004,None,370.0241351000004,None,370.0241351000004,None,right,1.492378999999346,370.10786670000016,None,370.0241351000004,None,371.62553800000023,None,003,006,2021_Jan_21_2303,contrast,2020.2.10,None,
0.45,5,7,47,4,372.147236599998,None,372.147236599998,None,372.147236599998,None,right,5.062607799998659,372.22285719999854,None,372.147236599998,None,377.31448459999956,None,003,006,2021_Jan_21_2303,contrast,2020.2.10,None,
0.35,6,0,48,2,377.8184046999995,None,377.8184046999995,None,377.8184046999995,None,left,2.453910599997471,377.8926640999998,None,377.8184046999995,None,380.37336549999964,None,003,006,2021_Jan_21_2303,contrast,2020.2.10,None,
0.6,6,1,49,7,380.88217109999823,None,380.88217109999823,None,380.88217109999823,None,right,1.4993112000011024,380.96554319999996,None,380.88217109999823,None,382.50308589999986,None,003,006,2021_Jan_21_2303,contrast,2020.2.10,None,
0.5,6,2,50,5,383.0173152999996,None,383.0173152999996,None,383.0173152999996,None,right,5.130495299999893,383.092153900001,None,383.0173152999996,None,388.249637500001,None,003,006,2021_Jan_21_2303,contrast,2020.2.10,None,
0.4,6,3,51,3,388.7614816999994,None,388.7614816999994,None,388.7614816999994,None,right,2.2567218000003777,388.8429122999987,None,388.7614816999994,None,391.1255437,None,003,006,2021_Jan_21_2303,contrast,2020.2.10,None,
0.45,6,4,52,4,391.65436430000045,None,391.65436430000045,None,391.65436430000045,None,right,3.5881637999991653,391.7412227999994,None,391.65436430000045,None,395.3555411999987,None,003,006,2021_Jan_21_2303,contrast,2020.2.10,None,
0.55,6,5,53,6,395.8812431999977,None,395.8812431999977,None,395.8812431999977,None,right,2.457861699997011,395.9596200999986,None,395.8812431999977,None,398.44649460000073,None,003,006,2021_Jan_21_2303,contrast,2020.2.10,None,
0.3,6,6,54,1,398.9663424999999,None,398.9663424999999,None,398.9663424999999,None,right,8.723253399999521,399.04536799999914,None,398.9663424999999,None,407.79325869999957,None,003,006,2021_Jan_21_2303,contrast,2020.2.10,None,
0.25,6,7,55,0,408.3219900999975,None,408.3219900999975,None,408.3219900999975,None,left,6.5402202999976,408.41322500000024,None,408.3219900999975,None,414.97948619999806,None,003,006,2021_Jan_21_2303,contrast,2020.2.10,None,
0.4,7,0,56,3,415.48939729999984,None,415.48939729999984,None,415.48939729999984,None,right,4.457814400000643,415.56919859999834,None,415.48939729999984,None,420.05479059999925,None,003,006,2021_Jan_21_2303,contrast,2020.2.10,None,
0.25,7,1,57,0,420.5678470999992,None,420.5678470999992,None,420.5678470999992,None,left,2.004916599998978,420.64784090000103,None,420.5678470999992,None,422.6780679000003,None,003,006,2021_Jan_21_2303,contrast,2020.2.10,None,
0.45,7,2,58,4,423.19283970000106,None,423.19283970000106,None,423.19283970000106,None,right,4.9593464999998105,423.27209890000086,None,423.19283970000106,None,428.2574918999999,None,003,006,2021_Jan_21_2303,contrast,2020.2.10,None,
0.3,7,3,59,1,428.7673630999998,None,428.7673630999998,None,428.7673630999998,None,right,3.8723663999990094,428.84270749999996,None,428.7673630999998,None,432.74178630000097,None,003,006,2021_Jan_21_2303,contrast,2020.2.10,None,
0.6,7,4,60,7,433.26672029999827,None,433.26672029999827,None,433.26672029999827,None,right,3.0013280999992276,433.3522582000005,None,433.26672029999827,None,436.3816040999991,None,003,006,2021_Jan_21_2303,contrast,2020.2.10,None,
0.55,7,5,61,6,436.89448659999834,None,436.89448659999834,None,436.89448659999834,None,right,27.59432270000252,436.9937009999994,None,436.89448659999834,None,464.61327209999945,None,003,006,2021_Jan_21_2303,contrast,2020.2.10,None,
0.5,7,6,62,5,465.1382752999998,None,465.1382752999998,None,465.1382752999998,None,right,2.7030081000011705,465.21241729999747,None,465.1382752999998,None,467.94213110000055,None,003,006,2021_Jan_21_2303,contrast,2020.2.10,None,
0.35,7,7,63,2,468.449125799998,None,468.449125799998,None,468.449125799998,None,right,2.4918671999985236,468.53510860000097,None,468.449125799998,None,471.054099099998,None,003,006,2021_Jan_21_2303,contrast,2020.2.10,None,
0.35,8,0,64,2,471.5605512000002,None,471.5605512000002,None,471.5605512000002,None,right,19.57181219999984,471.6339845000002,None,471.5605512000002,None,491.23842259999947,None,003,006,2021_Jan_21_2303,contrast,2020.2.10,None,
0.55,8,1,65,6,491.7421092000004,None,491.7421092000004,None,491.7421092000004,None,right,1.7051661999976204,491.82332939999833,None,491.7421092000004,None,493.5533069999983,None,003,006,2021_Jan_21_2303,contrast,2020.2.10,None,
0.3,8,2,66,1,494.0735187999999,None,494.0735187999999,None,494.0735187999999,None,right,5.682726000002731,494.14912379999805,None,494.0735187999999,None,499.8576319999993,None,003,006,2021_Jan_21_2303,contrast,2020.2.10,None,
0.6,8,3,67,7,500.3739819000002,None,500.3739819000002,None,500.3739819000002,None,right,2.6935403999996197,500.44848339999953,None,500.3739819000002,None,503.1688361999986,None,003,006,2021_Jan_21_2303,contrast,2020.2.10,None,
0.4,8,4,68,3,503.67624029999934,None,503.67624029999934,None,503.67624029999934,None,left,3.4092944000003627,503.7534556999999,None,503.67624029999934,None,507.18813539999974,None,003,006,2021_Jan_21_2303,contrast,2020.2.10,None,
0.25,8,5,69,0,507.6959523000005,None,507.6959523000005,None,507.6959523000005,None,right,2.8092160999985936,507.7749541999983,None,507.6959523000005,None,510.6106656000011,None,003,006,2021_Jan_21_2303,contrast,2020.2.10,None,
0.5,8,6,70,5,511.1156435999983,None,511.1156435999983,None,511.1156435999983,None,right,2.780005799999344,511.1924743999989,None,511.1156435999983,None,513.9978437999998,None,003,006,2021_Jan_21_2303,contrast,2020.2.10,None,
0.45,8,7,71,4,514.5283190000009,None,514.5283190000009,None,514.5283190000009,None,right,3.423069199998281,514.6111506999987,None,514.5283190000009,None,518.0608289999982,None,003,006,2021_Jan_21_2303,contrast,2020.2.10,None,
0.6,9,0,72,7,518.574556399999,None,518.574556399999,None,518.574556399999,None,right,2.0727742000017315,518.658367699998,None,518.574556399999,None,520.7601680999978,None,003,006,2021_Jan_21_2303,contrast,2020.2.10,None,
0.35,9,1,73,2,521.2732781999985,None,521.2732781999985,None,521.2732781999985,None,left,2.9875833000005514,521.3596312000009,None,521.2732781999985,None,524.3739951999996,None,003,006,2021_Jan_21_2303,contrast,2020.2.10,None,
0.25,9,2,74,0,524.8863464999995,None,524.8863464999995,None,524.8863464999995,None,right,3.0080056000006152,524.9626735999991,None,524.8863464999995,None,527.9958784999981,None,003,006,2021_Jan_21_2303,contrast,2020.2.10,None,
0.55,9,3,75,6,528.5088441000007,None,528.5088441000007,None,528.5088441000007,None,right,2.162491700000828,528.605440299998,None,528.5088441000007,None,530.7942890999984,None,003,006,2021_Jan_21_2303,contrast,2020.2.10,None,
0.4,9,4,76,3,531.3253527999987,None,531.3253527999987,None,531.3253527999987,None,left,2.062001099999179,531.4023792000007,None,531.3253527999987,None,533.4915588999975,None,003,006,2021_Jan_21_2303,contrast,2020.2.10,None,
0.3,9,5,77,1,534.0122114000005,None,534.0122114000005,None,534.0122114000005,None,left,2.367985900000349,534.0893328999991,None,534.0122114000005,None,536.4834684999987,None,003,006,2021_Jan_21_2303,contrast,2020.2.10,None,
0.45,9,6,78,4,537.0046106000009,None,537.0046106000009,None,537.0046106000009,None,right,2.5135468000007677,537.0824603000001,None,537.0046106000009,None,539.6223976000001,None,003,006,2021_Jan_21_2303,contrast,2020.2.10,None,
0.5,9,7,79,5,540.1331390999985,None,540.1331390999985,None,540.1331390999985,None,right,2.9337550999989617,540.2110990000001,None,540.1331390999985,None,543.1711232999987,None,003,006,2021_Jan_21_2303,contrast,2020.2.10,None,
0.35,10,0,80,2,543.6749072999992,None,543.6749072999992,None,543.6749072999992,None,right,1.6455278000030376,543.7507196999977,None,543.6749072999992,None,545.4220286999989,None,003,006,2021_Jan_21_2303,contrast,2020.2.10,None,
0.55,10,1,81,6,545.9499953999984,None,545.9499953999984,None,545.9499953999984,None,right,1.2495330999990983,546.0398750999993,None,545.9499953999984,None,547.3163566000003,None,003,006,2021_Jan_21_2303,contrast,2020.2.10,None,
0.3,10,2,82,1,547.8384387000006,None,547.8384387000006,None,547.8384387000006,None,left,1.2315440000020317,547.9194951999998,None,547.8384387000006,None,549.1775358999985,None,003,006,2021_Jan_21_2303,contrast,2020.2.10,None,
0.5,10,3,83,5,549.7045109999999,None,549.7045109999999,None,549.7045109999999,None,right,2.1803954999995767,549.7798088999989,None,549.7045109999999,None,551.9855416999999,None,003,006,2021_Jan_21_2303,contrast,2020.2.10,None,
0.6,10,4,84,7,552.5166098000009,None,552.5166098000009,None,552.5166098000009,None,right,2.1873503000024357,552.5987963999978,None,552.5166098000009,None,554.8121541,None,003,006,2021_Jan_21_2303,contrast,2020.2.10,None,
0.45,10,5,85,4,555.3198039999988,None,555.3198039999988,None,555.3198039999988,None,right,3.561033800000587,555.3959802999998,None,555.3198039999988,None,558.9833777999993,None,003,006,2021_Jan_21_2303,contrast,2020.2.10,None,
0.25,10,6,86,0,559.4892519999994,None,559.4892519999994,None,559.4892519999994,None,right,2.8941033000010066,559.5664154999977,None,559.4892519999994,None,562.4858488999998,None,003,006,2021_Jan_21_2303,contrast,2020.2.10,None,
0.4,10,7,87,3,563.0116477999982,None,563.0116477999982,None,563.0116477999982,None,right,7.439666999998735,563.0982809999987,None,563.0116477999982,None,570.573930999999,None,003,006,2021_Jan_21_2303,contrast,2020.2.10,None,
0.45,11,0,88,4,571.071469999999,None,571.071469999999,None,571.071469999999,None,right,2.503667699998914,571.1533744000008,None,571.071469999999,None,573.6832996999983,None,003,006,2021_Jan_21_2303,contrast,2020.2.10,None,
0.25,11,1,89,0,574.2031916999986,None,574.2031916999986,None,574.2031916999986,None,left,10.734193500000401,574.2854507999982,None,574.2031916999986,None,585.0454253999997,None,003,006,2021_Jan_21_2303,contrast,2020.2.10,None,
0.6,11,2,90,7,585.5578523000004,None,585.5578523000004,None,585.5578523000004,None,right,2.135249200000544,585.6367936999995,None,585.5578523000004,None,587.7975406999976,None,003,006,2021_Jan_21_2303,contrast,2020.2.10,None,
0.5,11,3,91,5,588.3061812999986,None,588.3061812999986,None,588.3061812999986,None,right,2.0144398999982513,588.3809695999989,None,588.3061812999986,None,590.4216134999988,None,003,006,2021_Jan_21_2303,contrast,2020.2.10,None,
0.55,11,4,92,6,590.9322905000008,None,590.9322905000008,None,590.9322905000008,None,right,2.3209031999977014,591.0110993999988,None,590.9322905000008,None,593.3584239999982,None,003,006,2021_Jan_21_2303,contrast,2020.2.10,None,
0.3,11,5,93,1,593.8708062000005,None,593.8708062000005,None,593.8708062000005,None,left,4.893932000002678,593.9481429000007,None,593.8708062000005,None,598.8672287000009,None,003,006,2021_Jan_21_2303,contrast,2020.2.10,None,
0.35,11,6,94,2,599.3988513000004,None,599.3988513000004,None,599.3988513000004,None,right,2.4119398000002548,599.4839279000007,None,599.3988513000004,None,601.9215168999981,None,003,006,2021_Jan_21_2303,contrast,2020.2.10,None,
0.4,11,7,95,3,602.4304597999981,None,602.4304597999981,None,602.4304597999981,None,left,2.1510898000015004,602.5060080000003,None,602.4304597999981,None,604.6849307999983,None,003,006,2021_Jan_21_2303,contrast,2020.2.10,None,
0.35,12,0,96,2,605.1882704999989,None,605.1882704999989,None,605.1882704999989,None,right,5.016086299998278,605.2618822000004,None,605.1882704999989,None,610.3091263999995,None,003,006,2021_Jan_21_2303,contrast,2020.2.10,None,
0.6,12,1,97,7,610.8321012999986,None,610.8321012999986,None,610.8321012999986,None,right,1.7347029999982624,610.9150614999999,None,610.8321012999986,None,612.6757784000001,None,003,006,2021_Jan_21_2303,contrast,2020.2.10,None,
0.3,12,2,98,1,613.209321899998,None,613.209321899998,None,613.209321899998,None,left,3.056481799998437,613.291060399999,None,613.209321899998,None,616.3718965999979,None,003,006,2021_Jan_21_2303,contrast,2020.2.10,None,
0.4,12,3,99,3,616.881801399999,None,616.881801399999,None,616.881801399999,None,right,2.948594299999968,616.9606968000007,None,616.881801399999,None,619.9360643,None,003,006,2021_Jan_21_2303,contrast,2020.2.10,None,
0.55,12,4,100,6,620.4551852999975,None,620.4551852999975,None,620.4551852999975,None,right,4.128183299999364,620.5302988000003,None,620.4551852999975,None,624.687864399999,None,003,006,2021_Jan_21_2303,contrast,2020.2.10,None,
0.45,12,5,101,4,625.1986080999995,None,625.1986080999995,None,625.1986080999995,None,right,6.443803399997705,625.2766101999987,None,625.1986080999995,None,631.7464446999984,None,003,006,2021_Jan_21_2303,contrast,2020.2.10,None,
0.25,12,6,102,0,632.2696709000011,None,632.2696709000011,None,632.2696709000011,None,right,3.554653099999996,632.3544556999987,None,632.2696709000011,None,635.9383716999982,None,003,006,2021_Jan_21_2303,contrast,2020.2.10,None,
0.5,12,7,103,5,636.4614709999987,None,636.4614709999987,None,636.4614709999987,None,right,2.1022822999984783,636.5395518999976,None,636.4614709999987,None,638.6685001999977,None,003,006,2021_Jan_21_2303,contrast,2020.2.10,None,
0.55,13,0,104,6,639.1922683999983,None,639.1922683999983,None,639.1922683999983,None,right,2.1852418999988004,639.2682881000001,None,639.1922683999983,None,641.4786706999985,None,003,006,2021_Jan_21_2303,contrast,2020.2.10,None,
0.25,13,1,105,0,641.987139599998,None,641.987139599998,None,641.987139599998,None,left,2.6651310000015656,642.0661018999999,None,641.987139599998,None,644.7575558999997,None,003,006,2021_Jan_21_2303,contrast,2020.2.10,None,
0.35,13,2,106,2,645.2676035000004,None,645.2676035000004,None,645.2676035000004,None,left,2.874156000001676,645.345626899998,None,645.2676035000004,None,648.2481387999978,None,003,006,2021_Jan_21_2303,contrast,2020.2.10,None,
0.3,13,3,107,1,648.7588409999989,None,648.7588409999989,None,648.7588409999989,None,right,2.3156041000002006,648.8400651000011,None,648.7588409999989,None,651.1813145999986,None,003,006,2021_Jan_21_2303,contrast,2020.2.10,None,
0.5,13,4,108,5,651.6962547000003,None,651.6962547000003,None,651.6962547000003,None,right,1.3702087000019674,651.7742213999991,None,651.6962547000003,None,653.1723880999998,None,003,006,2021_Jan_21_2303,contrast,2020.2.10,None,
0.4,13,5,109,3,653.6859715999999,None,653.6859715999999,None,653.6859715999999,None,right,4.064116900000954,653.7679678999993,None,653.6859715999999,None,657.8594053999986,None,003,006,2021_Jan_21_2303,contrast,2020.2.10,None,
0.6,13,6,110,7,658.3605040000002,None,658.3605040000002,None,658.3605040000002,None,right,2.158524499998748,658.4343878,None,658.3605040000002,None,660.6277971999989,None,003,006,2021_Jan_21_2303,contrast,2020.2.10,None,
0.45,13,7,111,4,661.134836199999,None,661.134836199999,None,661.134836199999,None,right,2.494389299998147,661.2104257999999,None,661.134836199999,None,663.7306055000008,None,003,006,2021_Jan_21_2303,contrast,2020.2.10,None,
0.55,14,0,112,6,664.2508393999997,None,664.2508393999997,None,664.2508393999997,None,right,2.070569000003161,664.3300791000001,None,664.2508393999997,None,666.4275658999977,None,003,006,2021_Jan_21_2303,contrast,2020.2.10,None,
0.45,14,1,113,4,666.9598527999988,None,666.9598527999988,None,666.9598527999988,None,right,3.365034200000082,667.0448083999981,None,666.9598527999988,None,670.4345437999982,None,003,006,2021_Jan_21_2303,contrast,2020.2.10,None,
0.6,14,2,114,7,670.943299300001,None,670.943299300001,None,670.943299300001,None,right,2.515089900000021,671.0243919999994,None,670.943299300001,None,673.5650854999985,None,003,006,2021_Jan_21_2303,contrast,2020.2.10,None,
0.4,14,3,115,3,674.0967477999984,None,674.0967477999984,None,674.0967477999984,None,right,1.5313062999994145,674.1847865999989,None,674.0967477999984,None,675.7422717000009,None,003,006,2021_Jan_21_2303,contrast,2020.2.10,None,
0.5,14,4,116,5,676.2651880999983,None,676.2651880999983,None,676.2651880999983,None,right,2.8125741000003472,676.3453611000004,None,676.2651880999983,None,679.1834149999995,None,003,006,2021_Jan_21_2303,contrast,2020.2.10,None,
0.3,14,5,117,1,679.6933156999985,None,679.6933156999985,None,679.6933156999985,None,left,2.180132199999207,679.7801330000002,None,679.6933156999985,None,681.9868069000004,None,003,006,2021_Jan_21_2303,contrast,2020.2.10,None,
0.25,14,6,118,0,682.4956001999999,None,682.4956001999999,None,682.4956001999999,None,left,3.6351971000003687,682.5714497000008,None,682.4956001999999,None,686.2308768000003,None,003,006,2021_Jan_21_2303,contrast,2020.2.10,None,
0.35,14,7,119,2,686.7454030999979,None,686.7454030999979,None,686.7454030999979,None,right,1.3229272000025958,686.8227134000008,None,686.7454030999979,None,688.1723994999993,None,003,006,2021_Jan_21_2303,contrast,2020.2.10,None,
0.4,15,0,120,3,688.6881794000001,None,688.6881794000001,None,688.6881794000001,None,right,1.3248180000009597,688.7648831999977,None,688.6881794000001,None,690.1146838999994,None,003,006,2021_Jan_21_2303,contrast,2020.2.10,None,
0.45,15,1,121,4,690.653688800001,None,690.653688800001,None,690.653688800001,None,right,1.2891603000025498,690.741396999998,None,690.653688800001,None,692.0565375000006,None,003,006,2021_Jan_21_2303,contrast,2020.2.10,None,
0.5,15,2,122,5,692.5773260999995,None,692.5773260999995,None,692.5773260999995,None,right,1.3604249999989406,692.659238799999,None,692.5773260999995,None,694.0461508999979,None,003,006,2021_Jan_21_2303,contrast,2020.2.10,None,
0.3,15,3,123,1,694.5736926999998,None,694.5736926999998,None,694.5736926999998,None,right,1.4371075999988534,694.6526365999998,None,694.5736926999998,None,696.1160495000004,None,003,006,2021_Jan_21_2303,contrast,2020.2.10,None,
0.25,15,4,124,0,696.6312883999999,None,696.6312883999999,None,696.6312883999999,None,left,4.022802300001786,696.7087699999975,None,696.6312883999999,None,700.7603860999989,None,003,006,2021_Jan_21_2303,contrast,2020.2.10,None,
0.35,15,5,125,2,701.2799067999986,None,701.2799067999986,None,701.2799067999986,None,right,2.420653200002562,701.3681804999978,None,701.2799067999986,None,703.8138847000009,None,003,006,2021_Jan_21_2303,contrast,2020.2.10,None,
0.55,15,6,126,6,704.318224300001,None,704.318224300001,None,704.318224300001,None,left,6.934150599998247,704.3929437000006,None,704.318224300001,None,711.353712600001,None,003,006,2021_Jan_21_2303,contrast,2020.2.10,None,
0.6,15,7,127,7,711.874962599999,None,711.874962599999,None,711.874962599999,None,right,1.0861512000010407,711.9504527999998,None,711.874962599999,None,713.0629222999996,None,003,006,2021_Jan_21_2303,contrast,2020.2.10,None,
0.55,16,0,128,6,713.5757257000005,None,713.5757257000005,None,713.5757257000005,None,right,1.6898886000017228,713.6551383999977,None,713.5757257000005,None,715.3703600000008,None,003,006,2021_Jan_21_2303,contrast,2020.2.10,None,
0.25,16,1,129,0,715.8964903999986,None,715.8964903999986,None,715.8964903999986,None,right,5.24875030000112,715.9714017999977,None,715.8964903999986,None,721.2465410000004,None,003,006,2021_Jan_21_2303,contrast,2020.2.10,None,
0.6,16,2,130,7,721.7603773999981,None,721.7603773999981,None,721.7603773999981,None,right,2.5071089999983087,721.8344047999999,None,721.7603773999981,None,724.3669665999987,None,003,006,2021_Jan_21_2303,contrast,2020.2.10,None,
0.4,16,3,131,3,724.8748759000009,None,724.8748759000009,None,724.8748759000009,None,right,1.7150299999993877,724.952077599999,None,724.8748759000009,None,726.6923088000003,None,003,006,2021_Jan_21_2303,contrast,2020.2.10,None,
0.45,16,4,132,4,727.2115818999991,None,727.2115818999991,None,727.2115818999991,None,right,2.300332199996774,727.2865891000001,None,727.2115818999991,None,729.6123965999977,None,003,006,2021_Jan_21_2303,contrast,2020.2.10,None,
0.35,16,5,133,2,730.1294696000004,None,730.1294696000004,None,730.1294696000004,None,left,3.0071568000021216,730.2063387999988,None,730.1294696000004,None,733.2381550999999,None,003,006,2021_Jan_21_2303,contrast,2020.2.10,None,
0.3,16,6,134,1,733.7641383000009,None,733.7641383000009,None,733.7641383000009,None,right,1.9459913000027882,733.8383006999975,None,733.7641383000009,None,735.8116860000009,None,003,006,2021_Jan_21_2303,contrast,2020.2.10,None,
0.5,16,7,135,5,736.3144819000008,None,736.3144819000008,None,736.3144819000008,None,right,2.1962314000011247,736.3904235000009,None,736.3144819000008,None,738.6133512999986,None,003,006,2021_Jan_21_2303,contrast,2020.2.10,None,
0.25,17,0,136,0,739.126660599999,None,739.126660599999,None,739.126660599999,None,left,2.5247514999973646,739.2029048000004,None,739.126660599999,None,741.7540079999999,None,003,006,2021_Jan_21_2303,contrast,2020.2.10,None,
0.4,17,1,137,3,742.278276699999,None,742.278276699999,None,742.278276699999,None,right,2.288032699998439,742.3573338999995,None,742.278276699999,None,744.6740090999992,None,003,006,2021_Jan_21_2303,contrast,2020.2.10,None,
0.5,17,2,138,5,745.1802633000007,None,745.1802633000007,None,745.1802633000007,None,right,2.01233879999927,745.2562383999975,None,745.1802633000007,None,747.2970978999983,None,003,006,2021_Jan_21_2303,contrast,2020.2.10,None,
0.3,17,3,139,1,747.816468699999,None,747.816468699999,None,747.816468699999,None,left,7.401522699998168,747.8940505999999,None,747.816468699999,None,755.3207934999991,None,003,006,2021_Jan_21_2303,contrast,2020.2.10,None,
0.45,17,4,140,4,755.8502114000003,None,755.8502114000003,None,755.8502114000003,None,right,4.4677321999988635,755.9263334999996,None,755.8502114000003,None,760.4200748000003,None,003,006,2021_Jan_21_2303,contrast,2020.2.10,None,
0.6,17,5,141,7,760.9357826999985,None,760.9357826999985,None,760.9357826999985,None,right,2.3944880999988527,761.011817999999,None,760.9357826999985,None,763.4338714999976,None,003,006,2021_Jan_21_2303,contrast,2020.2.10,None,
0.55,17,6,142,6,763.939691399999,None,763.939691399999,None,763.939691399999,None,right,1.3296632999990834,764.0138867999995,None,763.939691399999,None,765.3724882999995,None,003,006,2021_Jan_21_2303,contrast,2020.2.10,None,
0.35,17,7,143,2,765.8927010000007,None,765.8927010000007,None,765.8927010000007,None,right,5.118180999998003,765.9735906999995,None,765.8927010000007,None,771.1175949999997,None,003,006,2021_Jan_21_2303,contrast,2020.2.10,None,
0.5,18,0,144,5,771.6303268000011,None,771.6303268000011,None,771.6303268000011,None,right,1.9535442999986117,771.7058346999984,None,771.6303268000011,None,773.6887395999984,None,003,006,2021_Jan_21_2303,contrast,2020.2.10,None,
0.45,18,1,145,4,774.1975096999995,None,774.1975096999995,None,774.1975096999995,None,right,7.561213000000862,774.2721487999988,None,774.1975096999995,None,781.8586590999985,None,003,006,2021_Jan_21_2303,contrast,2020.2.10,None,
0.55,18,2,146,6,782.3839576999999,None,782.3839576999999,None,782.3839576999999,None,right,4.694344199997431,782.4578522000011,None,782.3839576999999,None,787.1796971999975,None,003,006,2021_Jan_21_2303,contrast,2020.2.10,None,
0.35,18,3,147,2,787.6908853999994,None,787.6908853999994,None,787.6908853999994,None,left,3.086140200000955,787.7686068000003,None,787.6908853999994,None,790.8804429000011,None,003,006,2021_Jan_21_2303,contrast,2020.2.10,None,
0.3,18,4,148,1,791.4086501999991,None,791.4086501999991,None,791.4086501999991,None,right,1.726207699997758,791.4915215000001,None,791.4086501999991,None,793.2425887999998,None,003,006,2021_Jan_21_2303,contrast,2020.2.10,None,
0.25,18,5,149,0,793.745203800001,None,793.745203800001,None,793.745203800001,None,right,1.31668030000219,793.8216138999996,None,793.745203800001,None,795.1636999000002,None,003,006,2021_Jan_21_2303,contrast,2020.2.10,None,
0.6,18,6,150,7,795.6762945999981,None,795.6762945999981,None,795.6762945999981,None,right,1.466538299999229,795.7519358999998,None,795.6762945999981,None,797.2450753999983,None,003,006,2021_Jan_21_2303,contrast,2020.2.10,None,
0.4,18,7,151,3,797.7561251999978,None,797.7561251999978,None,797.7561251999978,None,right,2.512120600000344,797.8331952999979,None,797.7561251999978,None,800.3714378000004,None,003,006,2021_Jan_21_2303,contrast,2020.2.10,None,
0.5,19,0,152,5,800.8812414999993,None,800.8812414999993,None,800.8812414999993,None,right,5.978431499999715,800.9827222999993,None,800.8812414999993,None,806.9865212000004,None,003,006,2021_Jan_21_2303,contrast,2020.2.10,None,
0.25,19,1,153,0,807.4911871000004,None,807.4911871000004,None,807.4911871000004,None,left,4.904739899997367,807.5644671000009,None,807.4911871000004,None,812.4939826000009,None,003,006,2021_Jan_21_2303,contrast,2020.2.10,None,
0.6,19,2,154,7,813.0077156000007,None,813.0077156000007,None,813.0077156000007,None,right,2.37673409999843,813.0835627999986,None,813.0077156000007,None,815.4854489999998,None,003,006,2021_Jan_21_2303,contrast,2020.2.10,None,
0.35,19,3,155,2,815.9916062999982,None,815.9916062999982,None,815.9916062999982,None,right,2.9542697000033513,816.0709430999996,None,815.9916062999982,None,819.0551793999985,None,003,006,2021_Jan_21_2303,contrast,2020.2.10,None,
0.55,19,4,156,6,819.5611167999996,None,819.5611167999996,None,819.5611167999996,None,right,3.8205773000008776,819.646448200001,None,819.5611167999996,None,823.4924820999986,None,003,006,2021_Jan_21_2303,contrast,2020.2.10,None,
0.3,19,5,157,1,823.9964153000001,None,823.9964153000001,None,823.9964153000001,None,right,1.7737540999987687,824.0758070999982,None,823.9964153000001,None,825.8757732999984,None,003,006,2021_Jan_21_2303,contrast,2020.2.10,None,
0.4,19,6,158,3,826.3902258999988,None,826.3902258999988,None,826.3902258999988,None,right,1.5594457000006514,826.4701017000007,None,826.3902258999988,None,828.0544582000002,None,003,006,2021_Jan_21_2303,contrast,2020.2.10,None,
0.45,19,7,159,4,828.5727084999999,None,828.5727084999999,None,828.5727084999999,None,right,1.6930588000032003,828.6531359,None,828.5727084999999,None,830.3771023000008,None,003,006,2021_Jan_21_2303,contrast,2020.2.10,None,
0.4,20,0,160,3,830.8820412999994,None,830.8820412999994,None,830.8820412999994,None,right,2.320570100000623,830.9659080999991,None,830.8820412999994,None,833.3125330000003,None,003,006,2021_Jan_21_2303,contrast,2020.2.10,None,
0.6,20,1,161,7,833.8397198999992,None,833.8397198999992,None,833.8397198999992,None,right,2.4328852999969968,833.9157594999997,None,833.8397198999992,None,836.3749742,None,003,006,2021_Jan_21_2303,contrast,2020.2.10,None,
0.45,20,2,162,4,836.8828639999992,None,836.8828639999992,None,836.8828639999992,None,right,1.120683500001178,836.9607657999986,None,836.8828639999992,None,838.1064043999977,None,003,006,2021_Jan_21_2303,contrast,2020.2.10,None,
0.5,20,3,163,5,838.6125447999984,None,838.6125447999984,None,838.6125447999984,None,right,1.8454614000002039,838.694314299999,None,838.6125447999984,None,840.5646809999998,None,003,006,2021_Jan_21_2303,contrast,2020.2.10,None,
0.35,20,4,164,2,841.0737846999982,None,841.0737846999982,None,841.0737846999982,None,right,2.699081599999772,841.1468447999978,None,841.0737846999982,None,843.872713599998,None,003,006,2021_Jan_21_2303,contrast,2020.2.10,None,
0.25,20,5,165,0,844.3795425999997,None,844.3795425999997,None,844.3795425999997,None,right,6.146465199999511,844.4594326999977,None,844.3795425999997,None,850.6319825999999,None,003,006,2021_Jan_21_2303,contrast,2020.2.10,None,
0.55,20,6,166,6,851.1368354999977,None,851.1368354999977,None,851.1368354999977,None,right,2.3097377000012784,851.2182046999988,None,851.1368354999977,None,853.5525015999992,None,003,006,2021_Jan_21_2303,contrast,2020.2.10,None,
0.3,20,7,167,1,854.0774977000001,None,854.0774977000001,None,854.0774977000001,None,left,6.871498900000006,854.1533879999988,None,854.0774977000001,None,861.0516728000002,None,003,006,2021_Jan_21_2303,contrast,2020.2.10,None,
0.35,21,0,168,2,861.5536647000008,None,861.5536647000008,None,861.5536647000008,None,right,1.9011755999999878,861.6303264999988,None,861.5536647000008,None,863.5582508000007,None,003,006,2021_Jan_21_2303,contrast,2020.2.10,None,
0.45,21,1,169,4,864.076204099998,None,864.076204099998,None,864.076204099998,None,right,2.4309155000009923,864.1622729999981,None,864.076204099998,None,866.6174764999996,None,003,006,2021_Jan_21_2303,contrast,2020.2.10,None,
0.4,21,2,170,3,867.1449943999978,None,867.1449943999978,None,867.1449943999978,None,right,2.6732869999977993,867.220813699998,None,867.1449943999978,None,869.9199561999994,None,003,006,2021_Jan_21_2303,contrast,2020.2.10,None,
0.55,21,3,171,6,870.4412394999999,None,870.4412394999999,None,870.4412394999999,None,right,1.6238773000004585,870.5166740999994,None,870.4412394999999,None,872.167369499999,None,003,006,2021_Jan_21_2303,contrast,2020.2.10,None,
0.3,21,4,172,1,872.6929799999998,None,872.6929799999998,None,872.6929799999998,None,right,3.492701899998792,872.7766073999992,None,872.6929799999998,None,876.2994067,None,003,006,2021_Jan_21_2303,contrast,2020.2.10,None,
0.5,21,5,173,5,876.8232743000008,None,876.8232743000008,None,876.8232743000008,None,right,1.1162631000006513,876.906749400001,None,876.8232743000008,None,878.0475852999989,None,003,006,2021_Jan_21_2303,contrast,2020.2.10,None,
0.25,21,6,174,0,878.5727342999999,None,878.5727342999999,None,878.5727342999999,None,right,1.2654882999995607,878.6473785999988,None,878.5727342999999,None,879.9394008999989,None,003,006,2021_Jan_21_2303,contrast,2020.2.10,None,
0.6,21,7,175,7,880.4407745999997,None,880.4407745999997,None,880.4407745999997,None,right,1.5755922999996983,880.5144866999981,None,880.4407745999997,None,882.1179143000008,None,003,006,2021_Jan_21_2303,contrast,2020.2.10,None,
0.6,22,0,176,7,882.6330105999987,None,882.6330105999987,None,882.6330105999987,None,right,2.0224949000003107,882.7125532999999,None,882.6330105999987,None,884.7632119000009,None,003,006,2021_Jan_21_2303,contrast,2020.2.10,None,
0.35,22,1,177,2,885.2945519999994,None,885.2945519999994,None,885.2945519999994,None,left,2.6534270999982255,885.3746685999977,None,885.2945519999994,None,888.0535504,None,003,006,2021_Jan_21_2303,contrast,2020.2.10,None,
0.3,22,2,178,1,888.5845994999981,None,888.5845994999981,None,888.5845994999981,None,left,3.04193049999958,888.6613574000003,None,888.5845994999981,None,891.7304254999981,None,003,006,2021_Jan_21_2303,contrast,2020.2.10,None,
0.45,22,3,179,4,892.2344229999981,None,892.2344229999981,None,892.2344229999981,None,right,1.9612764999983483,892.313212699999,None,892.2344229999981,None,894.3044540999981,None,003,006,2021_Jan_21_2303,contrast,2020.2.10,None,
0.25,22,4,180,0,894.8136028999979,None,894.8136028999979,None,894.8136028999979,None,left,1.8833321000020078,894.8904761999984,None,894.8136028999979,None,896.8003594000002,None,003,006,2021_Jan_21_2303,contrast,2020.2.10,None,
0.4,22,5,181,3,897.3196838000003,None,897.3196838000003,None,897.3196838000003,None,right,2.3717147999996087,897.3934243999975,None,897.3196838000003,None,899.7985904999987,None,003,006,2021_Jan_21_2303,contrast,2020.2.10,None,
0.55,22,6,182,6,900.3111251999981,None,900.3111251999981,None,900.3111251999981,None,right,1.82213739999861,900.390919999998,None,900.3111251999981,None,902.2435459999979,None,003,006,2021_Jan_21_2303,contrast,2020.2.10,None,
0.5,22,7,183,5,902.7579684999982,None,902.7579684999982,None,902.7579684999982,None,right,1.7512659999993048,902.8441523000001,None,902.7579684999982,None,904.6226991000003,None,003,006,2021_Jan_21_2303,contrast,2020.2.10,None,
0.55,23,0,184,6,905.1390007000009,None,905.1390007000009,None,905.1390007000009,None,right,2.243951199998264,905.2224681000007,None,905.1390007000009,None,907.4978658,None,003,006,2021_Jan_21_2303,contrast,2020.2.10,None,
0.3,23,1,185,1,908.0187772999998,None,908.0187772999998,None,908.0187772999998,None,left,3.24157379999815,908.0954139999994,None,908.0187772999998,None,911.362167299998,None,003,006,2021_Jan_21_2303,contrast,2020.2.10,None,
0.6,23,2,186,7,911.8851727000001,None,911.8851727000001,None,911.8851727000001,None,right,3.0099745000006806,911.9609316999995,None,911.8851727000001,None,914.9980002999982,None,003,006,2021_Jan_21_2303,contrast,2020.2.10,None,
0.35,23,3,187,2,915.5099674999983,None,915.5099674999983,None,915.5099674999983,None,right,2.8822242000023834,915.5888699999996,None,915.5099674999983,None,918.4961512000009,None,003,006,2021_Jan_21_2303,contrast,2020.2.10,None,
0.4,23,4,188,3,919.0194785999993,None,919.0194785999993,None,919.0194785999993,None,right,1.040951099999802,919.1006510000007,None,919.0194785999993,None,920.1682976999982,None,003,006,2021_Jan_21_2303,contrast,2020.2.10,None,
0.5,23,5,189,5,920.6719580999998,None,920.6719580999998,None,920.6719580999998,None,right,1.2705196999995678,920.7594333999987,None,920.6719580999998,None,922.0607657,None,003,006,2021_Jan_21_2303,contrast,2020.2.10,None,
0.45,23,6,190,4,922.5638106999977,None,922.5638106999977,None,922.5638106999977,None,right,1.639844200002699,922.6457807000006,None,922.5638106999977,None,924.315675400001,None,003,006,2021_Jan_21_2303,contrast,2020.2.10,None,
0.25,23,7,191,0,924.8218180000003,None,924.8218180000003,None,924.8218180000003,None,left,1.3606951000001573,924.9091425999977,None,924.8218180000003,None,926.2999238999982,None,003,006,2021_Jan_21_2303,contrast,2020.2.10,None,
0.6,24,0,192,7,926.8238228000009,None,926.8238228000009,None,926.8238228000009,None,right,1.2444109000025492,926.9090584000005,None,926.8238228000009,None,928.1781879000009,None,003,006,2021_Jan_21_2303,contrast,2020.2.10,None,
0.45,24,1,193,4,928.6871217000007,None,928.6871217000007,None,928.6871217000007,None,right,1.7586436000019603,928.7779655999984,None,928.6871217000007,None,930.5621013999989,None,003,006,2021_Jan_21_2303,contrast,2020.2.10,None,
0.5,24,2,194,5,931.0793319999975,None,931.0793319999975,None,931.0793319999975,None,right,2.0546966000001703,931.1669159999983,None,931.0793319999975,None,933.2480418999985,None,003,006,2021_Jan_21_2303,contrast,2020.2.10,None,
0.4,24,3,195,3,933.7651377000002,None,933.7651377000002,None,933.7651377000002,None,right,1.4949013000004925,933.8488682999996,None,933.7651377000002,None,935.3692474999989,None,003,006,2021_Jan_21_2303,contrast,2020.2.10,None,
0.25,24,4,196,0,935.8888709999992,None,935.8888709999992,None,935.8888709999992,None,right,1.05557029999909,935.9729837999985,None,935.8888709999992,None,937.0554907000005,None,003,006,2021_Jan_21_2303,contrast,2020.2.10,None,
0.35,24,5,197,2,937.5610115999989,None,937.5610115999989,None,937.5610115999989,None,right,1.5597467000006873,937.6432256999979,None,937.5610115999989,None,939.2272773000004,None,003,006,2021_Jan_21_2303,contrast,2020.2.10,None,
0.3,24,6,198,1,939.7382896999989,None,939.7382896999989,None,939.7382896999989,None,right,1.3417092000017874,939.8224501000004,None,939.7382896999989,None,941.1907283,None,003,006,2021_Jan_21_2303,contrast,2020.2.10,None,
0.55,24,7,199,6,941.710059099998,None,941.710059099998,None,941.710059099998,None,right,1.8424691000000166,941.8011755999978,None,941.710059099998,None,943.6685510999996,None,003,006,2021_Jan_21_2303,contrast,2020.2.10,None,
0.6,25,0,200,7,944.1919278999994,None,944.1919278999994,None,944.1919278999994,None,right,2.1388195999970776,944.2739662999993,None,944.1919278999994,None,946.4398330999975,None,003,006,2021_Jan_21_2303,contrast,2020.2.10,None,
0.4,25,1,201,3,946.9504868000004,None,946.9504868000004,None,946.9504868000004,None,left,2.8133992999974,947.0280878999984,None,946.9504868000004,None,949.8676756999994,None,003,006,2021_Jan_21_2303,contrast,2020.2.10,None,
0.25,25,2,202,0,950.3912506999986,None,950.3912506999986,None,950.3912506999986,None,left,1.8058423000002222,950.4706270999995,None,950.3912506999986,None,952.3041429999976,None,003,006,2021_Jan_21_2303,contrast,2020.2.10,None,
0.5,25,3,203,5,952.8167820999988,None,952.8167820999988,None,952.8167820999988,None,right,1.3271921999985352,952.8904892999999,None,952.8167820999988,None,954.2417251999977,None,003,006,2021_Jan_21_2303,contrast,2020.2.10,None,
0.35,25,4,204,2,954.7756894999984,None,954.7756894999984,None,954.7756894999984,None,right,3.8068932999995013,954.853751300001,None,954.7756894999984,None,958.6877372999988,None,003,006,2021_Jan_21_2303,contrast,2020.2.10,None,
0.45,25,5,205,4,959.1914918000002,None,959.1914918000002,None,959.1914918000002,None,right,2.9592007999999623,959.2656760999998,None,959.1914918000002,None,962.2522867000007,None,003,006,2021_Jan_21_2303,contrast,2020.2.10,None,
0.55,25,6,206,6,962.7613369999999,None,962.7613369999999,None,962.7613369999999,None,right,1.1789062000025297,962.8373011000003,None,962.7613369999999,None,964.0428389999979,None,003,006,2021_Jan_21_2303,contrast,2020.2.10,None,
0.3,25,7,207,1,964.5437531999996,None,964.5437531999996,None,964.5437531999996,None,left,1.836271800002578,964.6196702999987,None,964.5437531999996,None,966.4822031999975,None,003,006,2021_Jan_21_2303,contrast,2020.2.10,None,
0.6,26,0,208,7,966.9853184999993,None,966.9853184999993,None,966.9853184999993,None,right,2.328117099998053,967.0619187999982,None,966.9853184999993,None,969.4159929999987,None,003,006,2021_Jan_21_2303,contrast,2020.2.10,None,
0.55,26,1,209,6,969.9392931000002,None,969.9392931000002,None,969.9392931000002,None,right,1.4636003999985405,970.0155472000006,None,969.9392931000002,None,971.5036542999987,None,003,006,2021_Jan_21_2303,contrast,2020.2.10,None,
0.25,26,2,210,0,972.0077428999975,None,972.0077428999975,None,972.0077428999975,None,right,5.130069899998489,972.0826259999994,None,972.0077428999975,None,977.2387732999996,None,003,006,2021_Jan_21_2303,contrast,2020.2.10,None,
0.5,26,3,211,5,977.7500612000003,None,977.7500612000003,None,977.7500612000003,None,right,1.449223700001312,977.8269411000001,None,977.7500612000003,None,979.3068641999998,None,003,006,2021_Jan_21_2303,contrast,2020.2.10,None,
0.35,26,4,212,2,979.8131594999977,None,979.8131594999977,None,979.8131594999977,None,right,6.878789599999436,979.8891736999976,None,979.8131594999977,None,986.7949704999992,None,003,006,2021_Jan_21_2303,contrast,2020.2.10,None,
0.3,26,5,213,1,987.3058677999979,None,987.3058677999979,None,987.3058677999979,None,right,2.4645268999993277,987.382269400001,None,987.3058677999979,None,989.8724359999978,None,003,006,2021_Jan_21_2303,contrast,2020.2.10,None,
0.4,26,6,214,3,990.379926499998,None,990.379926499998,None,990.379926499998,None,left,1.9990560999976879,990.4564628999979,None,990.379926499998,None,992.4832915000006,None,003,006,2021_Jan_21_2303,contrast,2020.2.10,None,
0.45,26,7,215,4,993.0060009000008,None,993.0060009000008,None,993.0060009000008,None,right,2.3208973000000697,993.0831342999991,None,993.0060009000008,None,995.4306106000004,None,003,006,2021_Jan_21_2303,contrast,2020.2.10,None,
0.6,27,0,216,7,995.935811299998,None,995.935811299998,None,995.935811299998,None,right,1.0787896000001638,996.0105261999997,None,995.935811299998,None,997.1161068000001,None,003,006,2021_Jan_21_2303,contrast,2020.2.10,None,
0.4,27,1,217,3,997.6371426000005,None,997.6371426000005,None,997.6371426000005,None,right,2.6191021999984514,997.7131998000004,None,997.6371426000005,None,1000.3590875000009,None,003,006,2021_Jan_21_2303,contrast,2020.2.10,None,
0.5,27,2,218,5,1000.8679291000008,None,1000.8679291000008,None,1000.8679291000008,None,right,1.2781337999986135,1000.9430651000002,None,1000.8679291000008,None,1002.2473365999977,None,003,006,2021_Jan_21_2303,contrast,2020.2.10,None,
0.35,27,3,219,2,1002.7631038,None,1002.7631038,None,1002.7631038,None,right,3.193138700000418,1002.8439668999999,None,1002.7631038,None,1006.0673358999993,None,003,006,2021_Jan_21_2303,contrast,2020.2.10,None,
0.55,27,4,220,6,1006.5692885999997,None,1006.5692885999997,None,1006.5692885999997,None,right,3.4474994000011066,1006.6465447999981,None,1006.5692885999997,None,1010.1224479999983,None,003,006,2021_Jan_21_2303,contrast,2020.2.10,None,
0.25,27,5,221,0,1010.6315128999995,None,1010.6315128999995,None,1010.6315128999995,None,left,4.756777299997339,1010.7069708999989,None,1010.6315128999995,None,1015.4894372999988,None,003,006,2021_Jan_21_2303,contrast,2020.2.10,None,
0.3,27,6,222,1,1015.9934183999976,None,1015.9934183999976,None,1015.9934183999976,None,left,2.6412539999982982,1016.0685567,None,1015.9934183999976,None,1018.7363311000008,None,003,006,2021_Jan_21_2303,contrast,2020.2.10,None,
0.45,27,7,223,4,1019.2552417000006,None,1019.2552417000006,None,1019.2552417000006,None,right,2.834428399997705,1019.3355921000002,None,1019.2552417000006,None,1022.1948411999983,None,003,006,2021_Jan_21_2303,contrast,2020.2.10,None,
0.35,28,0,224,2,1022.7055182000004,None,1022.7055182000004,None,1022.7055182000004,None,right,1.6950874000031035,1022.787384700001,None,1022.7055182000004,None,1024.512274599998,None,003,006,2021_Jan_21_2303,contrast,2020.2.10,None,
0.5,28,1,225,5,1025.0183899000003,None,1025.0183899000003,None,1025.0183899000003,None,right,3.0485847999989346,1025.0952799000006,None,1025.0183899000003,None,1028.1715083999989,None,003,006,2021_Jan_21_2303,contrast,2020.2.10,None,
0.25,28,2,226,0,1028.6887423999979,None,1028.6887423999979,None,1028.6887423999979,None,left,2.5641943000009633,1028.765830100001,None,1028.6887423999979,None,1031.3584195000003,None,003,006,2021_Jan_21_2303,contrast,2020.2.10,None,
0.3,28,3,227,1,1031.866603800001,None,1031.866603800001,None,1031.866603800001,None,left,3.457141999999294,1031.9453037999992,None,1031.866603800001,None,1035.4281893999978,None,003,006,2021_Jan_21_2303,contrast,2020.2.10,None,
0.4,28,4,228,3,1035.9527591000005,None,1035.9527591000005,None,1035.9527591000005,None,right,1.669318000000203,1036.0288552999991,None,1035.9527591000005,None,1037.7230227,None,003,006,2021_Jan_21_2303,contrast,2020.2.10,None,
0.55,28,5,229,6,1038.2485130999994,None,1038.2485130999994,None,1038.2485130999994,None,right,3.3844194000012067,1038.3253589999986,None,1038.2485130999994,None,1041.7381401999992,None,003,006,2021_Jan_21_2303,contrast,2020.2.10,None,
0.45,28,6,230,4,1042.2553490999999,None,1042.2553490999999,None,1042.2553490999999,None,right,4.815724600000976,1042.340890200001,None,1042.2553490999999,None,1047.1821415999984,None,003,006,2021_Jan_21_2303,contrast,2020.2.10,None,
0.6,28,7,231,7,1047.6985956999997,None,1047.6985956999997,None,1047.6985956999997,None,right,1.561769700001605,1047.7726328999997,None,1047.6985956999997,None,1049.3590371999999,None,003,006,2021_Jan_21_2303,contrast,2020.2.10,None,
0.4,29,0,232,3,1049.8870873999986,None,1049.8870873999986,None,1049.8870873999986,None,right,2.0002347999979975,1049.9679178000006,None,1049.8870873999986,None,1051.9930771,None,003,006,2021_Jan_21_2303,contrast,2020.2.10,None,
0.35,29,1,233,2,1052.5085166999997,None,1052.5085166999997,None,1052.5085166999997,None,right,1.8193862000007357,1052.5831201,None,1052.5085166999997,None,1054.4277470999987,None,003,006,2021_Jan_21_2303,contrast,2020.2.10,None,
0.6,29,2,234,7,1054.9347178999997,None,1054.9347178999997,None,1054.9347178999997,None,right,2.3201356999998097,1055.0093687000008,None,1054.9347178999997,None,1057.3547901999991,None,003,006,2021_Jan_21_2303,contrast,2020.2.10,None,
0.3,29,3,235,1,1057.8711196000004,None,1057.8711196000004,None,1057.8711196000004,None,right,2.0857750000031956,1057.9457846000005,None,1057.8711196000004,None,1060.059247199999,None,003,006,2021_Jan_21_2303,contrast,2020.2.10,None,
0.25,29,4,236,0,1060.5811656000005,None,1060.5811656000005,None,1060.5811656000005,None,left,2.112100400001509,1060.658639199999,None,1060.5811656000005,None,1062.7992429999977,None,003,006,2021_Jan_21_2303,contrast,2020.2.10,None,
0.45,29,5,237,4,1063.3128051999993,None,1063.3128051999993,None,1063.3128051999993,None,right,2.7747576000001573,1063.3878067999976,None,1063.3128051999993,None,1066.1883636999992,None,003,006,2021_Jan_21_2303,contrast,2020.2.10,None,
0.5,29,6,238,5,1066.6980478000005,None,1066.6980478000005,None,1066.6980478000005,None,right,1.563599900000554,1066.7780467999983,None,1066.6980478000005,None,1068.3672713999986,None,003,006,2021_Jan_21_2303,contrast,2020.2.10,None,
0.55,29,7,239,6,1068.8708566999994,None,1068.8708566999994,None,1068.8708566999994,None,right,2.959261800002423,1068.951103299998,None,1068.8708566999994,None,1071.9376073999993,None,003,006,2021_Jan_21_2303,contrast,2020.2.10,None,
