rgb_luminance,trials.thisRepN,trials.thisTrialN,trials.thisN,trials.thisIndex,patch_background.started,patch_background.stopped,patch_foreground.started,patch_foreground.stopped,patch_test.started,patch_test.stopped,key_response.keys,key_response.rt,key_response.started,key_response.stopped,text_task.started,text_task.stopped,text.started,text.stopped,participant,session,date,expName,psychopyVersion,frameRate,
0.6,0,0,0,7,51.645762000000104,None,51.645762000000104,None,51.645762000000104,None,right,19.652093099997728,51.745498000000225,None,51.645762000000104,None,71.42503869999928,None,003,007,2021_Jan_21_2324,contrast,2020.2.10,35.03253997496413,
0.35,0,1,1,2,71.9455792000008,None,71.9455792000008,None,71.9455792000008,None,left,5.9276735999992525,72.02615829999922,None,71.9455792000008,None,77.98534990000189,None,003,007,2021_Jan_21_2324,contrast,2020.2.10,35.03253997496413,
0.45,0,2,2,4,78.50427510000009,None,78.50427510000009,None,78.50427510000009,None,right,1.5574753000000783,78.58437290000074,None,78.50427510000009,None,80.16786870000215,None,003,007,2021_Jan_21_2324,contrast,2020.2.10,35.03253997496413,
0.25,0,3,3,0,80.68049930000052,None,80.68049930000052,None,80.68049930000052,None,left,1.5217197999991185,80.76262570000108,None,80.68049930000052,None,82.30866930000047,None,003,007,2021_Jan_21_2324,contrast,2020.2.10,35.03253997496413,
0.5,0,4,4,5,82.8148543999996,None,82.8148543999996,None,82.8148543999996,None,right,1.6396233000014035,82.88965269999971,None,82.8148543999996,None,84.5555686000007,None,003,007,2021_Jan_21_2324,contrast,2020.2.10,35.03253997496413,
0.3,0,5,5,1,85.07718250000107,None,85.07718250000107,None,85.07718250000107,None,left,2.713001299998723,85.15763800000059,None,85.07718250000107,None,87.8957599000023,None,003,007,2021_Jan_21_2324,contrast,2020.2.10,35.03253997496413,
0.4,0,6,6,3,88.42208080000273,None,88.42208080000273,None,88.42208080000273,None,right,1.8974215999987791,88.49716620000254,None,88.42208080000273,None,90.41988920000222,None,003,007,2021_Jan_21_2324,contrast,2020.2.10,35.03253997496413,
0.55,0,7,7,6,90.94750449999992,None,90.94750449999992,None,90.94750449999992,None,right,3.038052299998526,91.03545040000245,None,90.94750449999992,None,94.1029746000022,None,003,007,2021_Jan_21_2324,contrast,2020.2.10,35.03253997496413,
0.6,1,0,8,7,94.60467110000172,None,94.60467110000172,None,94.60467110000172,None,right,1.2055416000002879,94.68048479999925,None,94.60467110000172,None,95.91299690000233,None,003,007,2021_Jan_21_2324,contrast,2020.2.10,35.03253997496413,
0.4,1,1,9,3,96.41819989999931,None,96.41819989999931,None,96.41819989999931,None,right,0.5170972999985679,96.49682200000098,None,96.41819989999931,None,97.04227209999954,None,003,007,2021_Jan_21_2324,contrast,2020.2.10,35.03253997496413,
0.35,1,2,10,2,97.54436250000072,None,97.54436250000072,None,97.54436250000072,None,right,1.9713446000023396,97.62158339999951,None,97.54436250000072,None,99.62086710000222,None,003,007,2021_Jan_21_2324,contrast,2020.2.10,35.03253997496413,
0.5,1,3,11,5,100.1329833000018,None,100.1329833000018,None,100.1329833000018,None,right,4.680185999997775,100.20905940000011,None,100.1329833000018,None,104.91689980000228,None,003,007,2021_Jan_21_2324,contrast,2020.2.10,35.03253997496413,
0.3,1,4,12,1,105.42015510000056,None,105.42015510000056,None,105.42015510000056,None,right,1.45792519999668,105.50153359999968,None,105.42015510000056,None,106.98544590000165,None,003,007,2021_Jan_21_2324,contrast,2020.2.10,35.03253997496413,
0.25,1,5,13,0,107.51209110000127,None,107.51209110000127,None,107.51209110000127,None,left,1.494765899999038,107.58794280000075,None,107.51209110000127,None,109.11099029999968,None,003,007,2021_Jan_21_2324,contrast,2020.2.10,35.03253997496413,
0.55,1,6,14,6,109.61727980000069,None,109.61727980000069,None,109.61727980000069,None,right,1.2080320000022766,109.69157730000006,None,109.61727980000069,None,110.92515970000022,None,003,007,2021_Jan_21_2324,contrast,2020.2.10,35.03253997496413,
0.45,1,7,15,4,111.42704180000146,None,111.42704180000146,None,111.42704180000146,None,right,1.6461386000009952,111.50445469999977,None,111.42704180000146,None,113.17625670000052,None,003,007,2021_Jan_21_2324,contrast,2020.2.10,35.03253997496413,
0.35,2,0,16,2,113.68495620000249,None,113.68495620000249,None,113.68495620000249,None,right,1.9387982000007469,113.7674571000025,None,113.68495620000249,None,115.7336286000027,None,003,007,2021_Jan_21_2324,contrast,2020.2.10,35.03253997496413,
0.45,2,1,17,4,116.25388440000097,None,116.25388440000097,None,116.25388440000097,None,right,2.184725299997808,116.33384289999958,None,116.25388440000097,None,118.54894550000245,None,003,007,2021_Jan_21_2324,contrast,2020.2.10,35.03253997496413,
0.3,2,2,18,1,119.06778230000054,None,119.06778230000054,None,119.06778230000054,None,right,5.868782000001374,119.15058630000203,None,119.06778230000054,None,125.04517920000217,None,003,007,2021_Jan_21_2324,contrast,2020.2.10,35.03253997496413,
0.25,2,3,19,0,125.55119000000195,None,125.55119000000195,None,125.55119000000195,None,left,3.942958899999212,125.63387370000055,None,125.55119000000195,None,129.60294470000008,None,003,007,2021_Jan_21_2324,contrast,2020.2.10,35.03253997496413,
0.4,2,4,20,3,130.1323310000007,None,130.1323310000007,None,130.1323310000007,None,right,1.8786920000020473,130.20684600000095,None,130.1323310000007,None,132.11626930000057,None,003,007,2021_Jan_21_2324,contrast,2020.2.10,35.03253997496413,
0.6,2,5,21,7,132.62805710000248,None,132.62805710000248,None,132.62805710000248,None,right,1.8700333000015235,132.70688190000146,None,132.62805710000248,None,134.60446969999975,None,003,007,2021_Jan_21_2324,contrast,2020.2.10,35.03253997496413,
0.5,2,6,22,5,135.13926110000102,None,135.13926110000102,None,135.13926110000102,None,right,1.2870751000009477,135.23019489999933,None,135.13926110000102,None,136.54333060000135,None,003,007,2021_Jan_21_2324,contrast,2020.2.10,35.03253997496413,
0.55,2,7,23,6,137.07079370000065,None,137.07079370000065,None,137.07079370000065,None,right,2.9228818000010506,137.1515255000013,None,137.07079370000065,None,140.10355640000125,None,003,007,2021_Jan_21_2324,contrast,2020.2.10,35.03253997496413,
0.55,3,0,24,6,140.61269090000133,None,140.61269090000133,None,140.61269090000133,None,right,1.821980499997153,140.68897070000094,None,140.61269090000133,None,142.53842570000052,None,003,007,2021_Jan_21_2324,contrast,2020.2.10,35.03253997496413,
0.25,3,1,25,0,143.04322950000278,None,143.04322950000278,None,143.04322950000278,None,left,2.8366946000023745,143.12751030000072,None,143.04322950000278,None,145.99088560000018,None,003,007,2021_Jan_21_2324,contrast,2020.2.10,35.03253997496413,
0.45,3,2,26,4,146.50711130000127,None,146.50711130000127,None,146.50711130000127,None,right,1.3278413999978511,146.58572540000023,None,146.50711130000127,None,147.93956819999948,None,003,007,2021_Jan_21_2324,contrast,2020.2.10,35.03253997496413,
0.6,3,3,27,7,148.44570960000055,None,148.44570960000055,None,148.44570960000055,None,right,2.368930399999954,148.51976880000075,None,148.44570960000055,None,150.9146701000027,None,003,007,2021_Jan_21_2324,contrast,2020.2.10,35.03253997496413,
0.3,3,4,28,1,151.44255930000145,None,151.44255930000145,None,151.44255930000145,None,left,8.797746000000188,151.52339230000143,None,151.44255930000145,None,160.3479217000022,None,003,007,2021_Jan_21_2324,contrast,2020.2.10,35.03253997496413,
0.5,3,5,29,5,160.84941460000118,None,160.84941460000118,None,160.84941460000118,None,right,30.34551310000097,160.9262783000013,None,160.84941460000118,None,191.29869250000047,None,003,007,2021_Jan_21_2324,contrast,2020.2.10,35.03253997496413,
0.4,3,6,30,3,191.8178556999992,None,191.8178556999992,None,191.8178556999992,None,right,12.510546600002272,191.8935261000006,None,191.8178556999992,None,204.42979160000323,None,003,007,2021_Jan_21_2324,contrast,2020.2.10,35.03253997496413,
0.35,3,7,31,2,204.9510066000039,None,204.9510066000039,None,204.9510066000039,None,left,4.914672499995504,205.03178980000303,None,204.9510066000039,None,209.9715713000005,None,003,007,2021_Jan_21_2324,contrast,2020.2.10,35.03253997496413,
0.55,4,0,32,6,210.5001405000039,None,210.5001405000039,None,210.5001405000039,None,right,1.1279261000017868,210.57433700000183,None,210.5001405000039,None,211.7327159000015,None,003,007,2021_Jan_21_2324,contrast,2020.2.10,35.03253997496413,
0.35,4,1,33,2,212.25297579999824,None,212.25297579999824,None,212.25297579999824,None,left,1.8835622999977204,212.33080600000176,None,212.25297579999824,None,214.2408766999979,None,003,007,2021_Jan_21_2324,contrast,2020.2.10,35.03253997496413,
0.5,4,2,34,5,214.76473970000006,None,214.76473970000006,None,214.76473970000006,None,right,5.123976499999117,214.83929030000218,None,214.76473970000006,None,219.98997710000185,None,003,007,2021_Jan_21_2324,contrast,2020.2.10,35.03253997496413,
0.4,4,3,35,3,220.5005162999987,None,220.5005162999987,None,220.5005162999987,None,right,2.895308200000727,220.5757224000008,None,220.5005162999987,None,223.49556980000125,None,003,007,2021_Jan_21_2324,contrast,2020.2.10,35.03253997496413,
0.6,4,4,36,7,224.01677769999878,None,224.01677769999878,None,224.01677769999878,None,right,2.4987536999979056,224.09556440000233,None,224.01677769999878,None,226.62057809999897,None,003,007,2021_Jan_21_2324,contrast,2020.2.10,35.03253997496413,
0.25,4,5,37,0,227.14007389999824,None,227.14007389999824,None,227.14007389999824,None,left,2.361516199998732,227.21593750000102,None,227.14007389999824,None,229.60337690000233,None,003,007,2021_Jan_21_2324,contrast,2020.2.10,35.03253997496413,
0.3,4,6,38,1,230.11145059999762,None,230.11145059999762,None,230.11145059999762,None,left,6.641322199997376,230.18547919999764,None,230.11145059999762,None,236.85118870000224,None,003,007,2021_Jan_21_2324,contrast,2020.2.10,35.03253997496413,
0.45,4,7,39,4,237.3766125000002,None,237.3766125000002,None,237.3766125000002,None,left,2.757612600005814,237.45395400000052,None,237.3766125000002,None,240.2386546000016,None,003,007,2021_Jan_21_2324,contrast,2020.2.10,35.03253997496413,
0.45,5,0,40,4,240.76535109999895,None,240.76535109999895,None,240.76535109999895,None,right,1.7218637999976636,240.85638210000252,None,240.76535109999895,None,242.60757029999877,None,003,007,2021_Jan_21_2324,contrast,2020.2.10,35.03253997496413,
0.4,5,1,41,3,243.13050529999964,None,243.13050529999964,None,243.13050529999964,None,right,0.9399516999983462,243.21139150000454,None,243.13050529999964,None,244.1769319999985,None,003,007,2021_Jan_21_2324,contrast,2020.2.10,35.03253997496413,
0.3,5,2,42,1,244.6910564000027,None,244.6910564000027,None,244.6910564000027,None,right,1.1303934000025038,244.76672640000106,None,244.6910564000027,None,245.9223099999981,None,003,007,2021_Jan_21_2324,contrast,2020.2.10,35.03253997496413,
0.55,5,3,43,6,246.4483586000024,None,246.4483586000024,None,246.4483586000024,None,right,2.1174806999988505,246.5275509000021,None,246.4483586000024,None,248.6705325999974,None,003,007,2021_Jan_21_2324,contrast,2020.2.10,35.03253997496413,
0.25,5,4,44,0,249.18409550000433,None,249.18409550000433,None,249.18409550000433,None,left,2.7488405000040075,249.264495600004,None,249.18409550000433,None,252.039447500003,None,003,007,2021_Jan_21_2324,contrast,2020.2.10,35.03253997496413,
0.5,5,5,45,5,252.5649530999981,None,252.5649530999981,None,252.5649530999981,None,right,1.3737633999990067,252.63910609999948,None,252.5649530999981,None,254.03848189999917,None,003,007,2021_Jan_21_2324,contrast,2020.2.10,35.03253997496413,
0.35,5,6,46,2,254.5432331000011,None,254.5432331000011,None,254.5432331000011,None,right,1.9538466000012704,254.61908439999752,None,254.5432331000011,None,256.59958630000256,None,003,007,2021_Jan_21_2324,contrast,2020.2.10,35.03253997496413,
0.6,5,7,47,7,257.12766360000023,None,257.12766360000023,None,257.12766360000023,None,right,2.1367209999953047,257.2066427999998,None,257.12766360000023,None,259.37018020000323,None,003,007,2021_Jan_21_2324,contrast,2020.2.10,35.03253997496413,
0.35,6,0,48,2,259.88262430000395,None,259.88262430000395,None,259.88262430000395,None,right,1.5532193999970332,259.9596077999995,None,259.88262430000395,None,261.5394806000004,None,003,007,2021_Jan_21_2324,contrast,2020.2.10,35.03253997496413,
0.4,6,1,49,3,262.0402686999987,None,262.0402686999987,None,262.0402686999987,None,left,3.5276920999967842,262.11945500000365,None,262.0402686999987,None,265.6751222999992,None,003,007,2021_Jan_21_2324,contrast,2020.2.10,35.03253997496413,
0.3,6,2,50,1,266.18112699999983,None,266.18112699999983,None,266.18112699999983,None,left,4.210647300002165,266.26077720000103,None,266.18112699999983,None,270.4984549000037,None,003,007,2021_Jan_21_2324,contrast,2020.2.10,35.03253997496413,
0.55,6,3,51,6,271.0177550999979,None,271.0177550999979,None,271.0177550999979,None,right,4.538606999994954,271.0953036000028,None,271.0177550999979,None,275.6627195000001,None,003,007,2021_Jan_21_2324,contrast,2020.2.10,35.03253997496413,
0.45,6,4,52,4,276.16865970000435,None,276.16865970000435,None,276.16865970000435,None,right,2.084363399997528,276.2465210000046,None,276.16865970000435,None,278.3577609000022,None,003,007,2021_Jan_21_2324,contrast,2020.2.10,35.03253997496413,
0.25,6,5,53,0,278.8734082999981,None,278.8734082999981,None,278.8734082999981,None,right,2.133976099998108,278.9534345000029,None,278.8734082999981,None,281.1157559000021,None,003,007,2021_Jan_21_2324,contrast,2020.2.10,35.03253997496413,
0.6,6,6,54,7,281.6263953999987,None,281.6263953999987,None,281.6263953999987,None,right,1.2459079999971436,281.7015571999982,None,281.6263953999987,None,282.97433600000295,None,003,007,2021_Jan_21_2324,contrast,2020.2.10,35.03253997496413,
0.5,6,7,55,5,283.494656400002,None,283.494656400002,None,283.494656400002,None,right,1.3945941999991192,283.56997729999784,None,283.494656400002,None,284.99190830000225,None,003,007,2021_Jan_21_2324,contrast,2020.2.10,35.03253997496413,
0.4,7,0,56,3,285.5071111000034,None,285.5071111000034,None,285.5071111000034,None,right,1.5169896000006702,285.5859426999996,None,285.5071111000034,None,287.1292840999995,None,003,007,2021_Jan_21_2324,contrast,2020.2.10,35.03253997496413,
0.45,7,1,57,4,287.65626020000127,None,287.65626020000127,None,287.65626020000127,None,right,1.7824036000019987,287.73243569999977,None,287.65626020000127,None,289.5411304000045,None,003,007,2021_Jan_21_2324,contrast,2020.2.10,35.03253997496413,
0.55,7,2,58,6,290.0640394000038,None,290.0640394000038,None,290.0640394000038,None,right,2.372774400006165,290.1432513,None,290.0640394000038,None,292.54189730000144,None,003,007,2021_Jan_21_2324,contrast,2020.2.10,35.03253997496413,
0.5,7,3,59,5,293.0611825999986,None,293.0611825999986,None,293.0611825999986,None,right,6.142561900000146,293.14062080000076,None,293.0611825999986,None,299.30962999999974,None,003,007,2021_Jan_21_2324,contrast,2020.2.10,35.03253997496413,
0.3,7,4,60,1,299.8180670000038,None,299.8180670000038,None,299.8180670000038,None,right,2.3767230000012205,299.8953253000036,None,299.8180670000038,None,302.29915560000154,None,003,007,2021_Jan_21_2324,contrast,2020.2.10,35.03253997496413,
0.25,7,5,61,0,302.8171459999976,None,302.8171459999976,None,302.8171459999976,None,right,2.5776766999988467,302.8914812999974,None,302.8171459999976,None,305.49648920000254,None,003,007,2021_Jan_21_2324,contrast,2020.2.10,35.03253997496413,
0.6,7,6,62,7,306.00396040000123,None,306.00396040000123,None,306.00396040000123,None,right,2.1894685000006575,306.079523299999,None,306.00396040000123,None,308.29561950000425,None,003,007,2021_Jan_21_2324,contrast,2020.2.10,35.03253997496413,
0.35,7,7,63,2,308.8260932000012,None,308.8260932000012,None,308.8260932000012,None,right,5.233492999999726,308.902103299999,None,308.8260932000012,None,314.165080499999,None,003,007,2021_Jan_21_2324,contrast,2020.2.10,35.03253997496413,
0.6,8,0,64,7,314.68473959999756,None,314.68473959999756,None,314.68473959999756,None,right,1.68649860000005,314.76072329999806,None,314.68473959999756,None,316.4738232999989,None,003,007,2021_Jan_21_2324,contrast,2020.2.10,35.03253997496413,
0.25,8,1,65,0,316.9861457000043,None,316.9861457000043,None,316.9861457000043,None,left,3.028511600001366,317.06404680000196,None,316.9861457000043,None,320.11895690000165,None,003,007,2021_Jan_21_2324,contrast,2020.2.10,35.03253997496413,
0.4,8,2,66,3,320.6500109000008,None,320.6500109000008,None,320.6500109000008,None,right,2.614528700003575,320.7271836000036,None,320.6500109000008,None,323.3673740999984,None,003,007,2021_Jan_21_2324,contrast,2020.2.10,35.03253997496413,
0.45,8,3,67,4,323.88170860000173,None,323.88170860000173,None,323.88170860000173,None,right,1.0649973999970825,323.9584743999985,None,323.88170860000173,None,325.0487921999993,None,003,007,2021_Jan_21_2324,contrast,2020.2.10,35.03253997496413,
0.35,8,4,68,2,325.5591471999978,None,325.5591471999978,None,325.5591471999978,None,right,2.433692099999462,325.6399238999984,None,325.5591471999978,None,328.10328530000334,None,003,007,2021_Jan_21_2324,contrast,2020.2.10,35.03253997496413,
0.55,8,5,69,6,328.61239630000273,None,328.61239630000273,None,328.61239630000273,None,right,3.0270866000064416,328.68809350000447,None,328.61239630000273,None,331.74074470000414,None,003,007,2021_Jan_21_2324,contrast,2020.2.10,35.03253997496413,
0.5,8,6,70,5,332.25307819999944,None,332.25307819999944,None,332.25307819999944,None,right,2.001720899999782,332.3270530000045,None,332.25307819999944,None,334.35471699999835,None,003,007,2021_Jan_21_2324,contrast,2020.2.10,35.03253997496413,
0.3,8,7,71,1,334.86130140000387,None,334.86130140000387,None,334.86130140000387,None,right,6.977584300002491,334.9351863000011,None,334.86130140000387,None,341.9394082000035,None,003,007,2021_Jan_21_2324,contrast,2020.2.10,35.03253997496413,
0.5,9,0,72,5,342.46403559999817,None,342.46403559999817,None,342.46403559999817,None,right,1.4730506999985664,342.54089079999903,None,342.46403559999817,None,344.03947210000115,None,003,007,2021_Jan_21_2324,contrast,2020.2.10,35.03253997496413,
0.6,9,1,73,7,344.5448776000012,None,344.5448776000012,None,344.5448776000012,None,right,1.265236899998854,344.6224811000029,None,344.5448776000012,None,345.91303540000445,None,003,007,2021_Jan_21_2324,contrast,2020.2.10,35.03253997496413,
0.25,9,2,74,0,346.43354049999834,None,346.43354049999834,None,346.43354049999834,None,left,2.8291281000056188,346.5134150999984,None,346.43354049999834,None,349.36903460000394,None,003,007,2021_Jan_21_2324,contrast,2020.2.10,35.03253997496413,
0.35,9,3,75,2,349.876238300003,None,349.876238300003,None,349.876238300003,None,right,1.1845765999969444,349.9557808999998,None,349.876238300003,None,351.1668690000042,None,003,007,2021_Jan_21_2324,contrast,2020.2.10,35.03253997496413,
0.4,9,4,76,3,351.6924065000021,None,351.6924065000021,None,351.6924065000021,None,right,2.3725753000035184,351.77027910000106,None,351.6924065000021,None,354.16799370000444,None,003,007,2021_Jan_21_2324,contrast,2020.2.10,35.03253997496413,
0.45,9,5,77,4,354.69543850000264,None,354.69543850000264,None,354.69543850000264,None,right,1.056751299998723,354.77308789999734,None,354.69543850000264,None,355.85650850000457,None,003,007,2021_Jan_21_2324,contrast,2020.2.10,35.03253997496413,
0.3,9,6,78,1,356.3632056000024,None,356.3632056000024,None,356.3632056000024,None,right,1.349945599999046,356.4384994000029,None,356.3632056000024,None,357.8135951999975,None,003,007,2021_Jan_21_2324,contrast,2020.2.10,35.03253997496413,
0.55,9,7,79,6,358.3266773000032,None,358.3266773000032,None,358.3266773000032,None,right,1.7283434999990277,358.4041199000021,None,358.3266773000032,None,360.1587039000042,None,003,007,2021_Jan_21_2324,contrast,2020.2.10,35.03253997496413,
0.45,10,0,80,4,360.66468050000185,None,360.66468050000185,None,360.66468050000185,None,right,3.404186599997047,360.7452741999987,None,360.66468050000185,None,364.1758828999991,None,003,007,2021_Jan_21_2324,contrast,2020.2.10,35.03253997496413,
0.3,10,1,81,1,364.6974083999994,None,364.6974083999994,None,364.6974083999994,None,left,3.2529905999981565,364.77330570000413,None,364.6974083999994,None,368.05286980000164,None,003,007,2021_Jan_21_2324,contrast,2020.2.10,35.03253997496413,
0.5,10,2,82,5,368.55682650000017,None,368.55682650000017,None,368.55682650000017,None,right,2.5099655000012717,368.63487189999796,None,368.55682650000017,None,371.17082160000064,None,003,007,2021_Jan_21_2324,contrast,2020.2.10,35.03253997496413,
0.25,10,3,83,0,371.694801200003,None,371.694801200003,None,371.694801200003,None,right,1.1310751000055461,371.7732386000025,None,371.694801200003,None,372.92975710000246,None,003,007,2021_Jan_21_2324,contrast,2020.2.10,35.03253997496413,
0.55,10,4,84,6,373.4328626000024,None,373.4328626000024,None,373.4328626000024,None,right,1.3955107999936445,373.5110719999975,None,373.4328626000024,None,374.9316704999983,None,003,007,2021_Jan_21_2324,contrast,2020.2.10,35.03253997496413,
0.35,10,5,85,2,375.4601003000025,None,375.4601003000025,None,375.4601003000025,None,right,1.6809781999982079,375.53434090000155,None,375.4601003000025,None,377.240505400001,None,003,007,2021_Jan_21_2324,contrast,2020.2.10,35.03253997496413,
0.4,10,6,86,3,377.75628260000303,None,377.75628260000303,None,377.75628260000303,None,right,3.3770693999977084,377.838057500001,None,377.75628260000303,None,381.242317799999,None,003,007,2021_Jan_21_2324,contrast,2020.2.10,35.03253997496413,
0.6,10,7,87,7,381.74631959999897,None,381.74631959999897,None,381.74631959999897,None,right,1.319046000004164,381.82832000000417,None,381.74631959999897,None,383.17438649999895,None,003,007,2021_Jan_21_2324,contrast,2020.2.10,35.03253997496413,
0.6,11,0,88,7,383.68161820000023,None,383.68161820000023,None,383.68161820000023,None,right,2.0842104999974254,383.7588833000009,None,383.68161820000023,None,385.86895910000385,None,003,007,2021_Jan_21_2324,contrast,2020.2.10,35.03253997496413,
0.3,11,1,89,1,386.3935014999988,None,386.3935014999988,None,386.3935014999988,None,right,4.493719400001282,386.46935689999736,None,386.3935014999988,None,390.99199849999786,None,003,007,2021_Jan_21_2324,contrast,2020.2.10,35.03253997496413,
0.5,11,2,90,5,391.5139806999978,None,391.5139806999978,None,391.5139806999978,None,right,1.3063918000043486,391.5902324000017,None,391.5139806999978,None,392.92293950000385,None,003,007,2021_Jan_21_2324,contrast,2020.2.10,35.03253997496413,
0.45,11,3,91,4,393.43925769999987,None,393.43925769999987,None,393.43925769999987,None,right,1.8781904999996186,393.5157556000013,None,393.43925769999987,None,395.41845490000196,None,003,007,2021_Jan_21_2324,contrast,2020.2.10,35.03253997496413,
0.4,11,4,92,3,395.9467771000018,None,395.9467771000018,None,395.9467771000018,None,right,2.6274793000047794,396.0235180999989,None,395.9467771000018,None,398.6780902999999,None,003,007,2021_Jan_21_2324,contrast,2020.2.10,35.03253997496413,
0.35,11,5,93,2,399.18326600000364,None,399.18326600000364,None,399.18326600000364,None,right,2.943007399997441,399.2628375000022,None,399.18326600000364,None,402.230591800002,None,003,007,2021_Jan_21_2324,contrast,2020.2.10,35.03253997496413,
0.55,11,6,94,6,402.76151120000213,None,402.76151120000213,None,402.76151120000213,None,right,1.6778410999977496,402.83665810000457,None,402.76151120000213,None,404.53976630000034,None,003,007,2021_Jan_21_2324,contrast,2020.2.10,35.03253997496413,
0.25,11,7,95,0,405.04542779999974,None,405.04542779999974,None,405.04542779999974,None,right,2.2783810999972047,405.12344510000185,None,405.04542779999974,None,407.4308639999981,None,003,007,2021_Jan_21_2324,contrast,2020.2.10,35.03253997496413,
0.6,12,0,96,7,407.9341231000035,None,407.9341231000035,None,407.9341231000035,None,right,2.003788900001382,408.0168664999983,None,407.9341231000035,None,410.0456882000035,None,003,007,2021_Jan_21_2324,contrast,2020.2.10,35.03253997496413,
0.35,12,1,97,2,410.54921919999833,None,410.54921919999833,None,410.54921919999833,None,right,1.1998004000051878,410.62597040000037,None,410.54921919999833,None,411.8504232000014,None,003,007,2021_Jan_21_2324,contrast,2020.2.10,35.03253997496413,
0.25,12,2,98,0,412.3755654000015,None,412.3755654000015,None,412.3755654000015,None,right,4.441651900000579,412.45612299999993,None,412.3755654000015,None,416.92323530000067,None,003,007,2021_Jan_21_2324,contrast,2020.2.10,35.03253997496413,
0.4,12,3,99,3,417.4276748000011,None,417.4276748000011,None,417.4276748000011,None,right,1.9467936000000918,417.5049739999995,None,417.4276748000011,None,419.47815990000163,None,003,007,2021_Jan_21_2324,contrast,2020.2.10,35.03253997496413,
0.5,12,4,100,5,419.9869377000032,None,419.9869377000032,None,419.9869377000032,None,right,2.0274659999995492,420.06124420000197,None,419.9869377000032,None,422.11933130000034,None,003,007,2021_Jan_21_2324,contrast,2020.2.10,35.03253997496413,
0.55,12,5,101,6,422.62049489999845,None,422.62049489999845,None,422.62049489999845,None,right,1.197366599997622,422.6963674000035,None,422.62049489999845,None,423.91733130000284,None,003,007,2021_Jan_21_2324,contrast,2020.2.10,35.03253997496413,
0.45,12,6,102,4,424.4465788999987,None,424.4465788999987,None,424.4465788999987,None,right,1.290026199996646,424.54122460000144,None,424.4465788999987,None,425.8565800000033,None,003,007,2021_Jan_21_2324,contrast,2020.2.10,35.03253997496413,
0.3,12,7,103,1,426.36152049999873,None,426.36152049999873,None,426.36152049999873,None,right,1.3357258999967598,426.4393721999986,None,426.36152049999873,None,427.805748200004,None,003,007,2021_Jan_21_2324,contrast,2020.2.10,35.03253997496413,
0.6,13,0,104,7,428.31229990000065,None,428.31229990000065,None,428.31229990000065,None,right,1.6545597000003909,428.3884120000039,None,428.31229990000065,None,430.0698530000045,None,003,007,2021_Jan_21_2324,contrast,2020.2.10,35.03253997496413,
0.55,13,1,105,6,430.582188700002,None,430.582188700002,None,430.582188700002,None,right,1.059334300000046,430.6570688000029,None,430.582188700002,None,431.74212510000143,None,003,007,2021_Jan_21_2324,contrast,2020.2.10,35.03253997496413,
0.45,13,2,106,4,432.2532844999987,None,432.2532844999987,None,432.2532844999987,None,right,1.7590110000019195,432.3304309999985,None,432.2532844999987,None,434.1188927000003,None,003,007,2021_Jan_21_2324,contrast,2020.2.10,35.03253997496413,
0.4,13,3,107,3,434.62290060000305,None,434.62290060000305,None,434.62290060000305,None,right,1.3751532999958727,434.7040124000014,None,434.62290060000305,None,436.1070104999999,None,003,007,2021_Jan_21_2324,contrast,2020.2.10,35.03253997496413,
0.3,13,4,108,1,436.6162753999997,None,436.6162753999997,None,436.6162753999997,None,right,1.2600686000005226,436.69177120000313,None,436.6162753999997,None,437.97791589999906,None,003,007,2021_Jan_21_2324,contrast,2020.2.10,35.03253997496413,
0.25,13,5,109,0,438.4892082999977,None,438.4892082999977,None,438.4892082999977,None,left,1.7197655999989365,438.5636018999976,None,438.4892082999977,None,440.30889340000067,None,003,007,2021_Jan_21_2324,contrast,2020.2.10,35.03253997496413,
0.35,13,6,110,2,440.8123874999983,None,440.8123874999983,None,440.8123874999983,None,right,1.7626280000040424,440.89023680000173,None,440.8123874999983,None,442.6790992999995,None,003,007,2021_Jan_21_2324,contrast,2020.2.10,35.03253997496413,
0.5,13,7,111,5,443.20966789999875,None,443.20966789999875,None,443.20966789999875,None,right,1.483666499996616,443.2858501999981,None,443.20966789999875,None,444.79619620000085,None,003,007,2021_Jan_21_2324,contrast,2020.2.10,35.03253997496413,
0.55,14,0,112,6,445.2980904000033,None,445.2980904000033,None,445.2980904000033,None,right,1.834366900002351,445.37160239999866,None,445.2980904000033,None,447.2318789000019,None,003,007,2021_Jan_21_2324,contrast,2020.2.10,35.03253997496413,
0.6,14,1,113,7,447.7508551000028,None,447.7508551000028,None,447.7508551000028,None,right,2.2509148999961326,447.83314900000187,None,447.7508551000028,None,450.1123927000044,None,003,007,2021_Jan_21_2324,contrast,2020.2.10,35.03253997496413,
0.5,14,2,114,5,450.6203243000018,None,450.6203243000018,None,450.6203243000018,None,right,3.0250353000010364,450.69666840000355,None,450.6203243000018,None,453.74850199999855,None,003,007,2021_Jan_21_2324,contrast,2020.2.10,35.03253997496413,
0.35,14,3,115,2,454.2645919000024,None,454.2645919000024,None,454.2645919000024,None,right,1.6751693000041996,454.34435329999906,None,454.2645919000024,None,456.0456662000033,None,003,007,2021_Jan_21_2324,contrast,2020.2.10,35.03253997496413,
0.4,14,4,116,3,456.55159150000327,None,456.55159150000327,None,456.55159150000327,None,right,1.1998766000033356,456.6286588000039,None,456.55159150000327,None,457.8553007000046,None,003,007,2021_Jan_21_2324,contrast,2020.2.10,35.03253997496413,
0.45,14,5,117,4,458.383243500004,None,458.383243500004,None,458.383243500004,None,right,1.332356200000504,458.4589307000024,None,458.383243500004,None,459.82000280000284,None,003,007,2021_Jan_21_2324,contrast,2020.2.10,35.03253997496413,
0.3,14,6,118,1,460.3259392,None,460.3259392,None,460.3259392,None,right,2.1985650999995414,460.4013348999979,None,460.3259392,None,462.62517429999934,None,003,007,2021_Jan_21_2324,contrast,2020.2.10,35.03253997496413,
0.25,14,7,119,0,463.1285983000016,None,463.1285983000016,None,463.1285983000016,None,right,1.8291884999998729,463.2061089000017,None,463.1285983000016,None,465.06238510000185,None,003,007,2021_Jan_21_2324,contrast,2020.2.10,35.03253997496413,
0.4,15,0,120,3,465.56751240000085,None,465.56751240000085,None,465.56751240000085,None,right,1.3201141999961692,465.6419760000026,None,465.56751240000085,None,466.99094730000434,None,003,007,2021_Jan_21_2324,contrast,2020.2.10,35.03253997496413,
0.25,15,1,121,0,467.5004200000003,None,467.5004200000003,None,467.5004200000003,None,right,1.3196852000037325,467.5770455999991,None,467.5004200000003,None,468.92177430000083,None,003,007,2021_Jan_21_2324,contrast,2020.2.10,35.03253997496413,
0.6,15,2,122,7,469.4293605000021,None,469.4293605000021,None,469.4293605000021,None,right,1.458740600006422,469.5051248999989,None,469.4293605000021,None,470.9905278999977,None,003,007,2021_Jan_21_2324,contrast,2020.2.10,35.03253997496413,
0.55,15,3,123,6,471.4953196000024,None,471.4953196000024,None,471.4953196000024,None,right,1.6360397999960696,471.57054620000054,None,471.4953196000024,None,473.23386830000163,None,003,007,2021_Jan_21_2324,contrast,2020.2.10,35.03253997496413,
0.45,15,4,124,4,473.74516790000416,None,473.74516790000416,None,473.74516790000416,None,right,2.515664000005927,473.82656320000024,None,473.74516790000416,None,476.37195879999854,None,003,007,2021_Jan_21_2324,contrast,2020.2.10,35.03253997496413,
0.3,15,5,125,1,476.8754317000021,None,476.8754317000021,None,476.8754317000021,None,right,1.2547444000010728,476.9516840000033,None,476.8754317000021,None,478.2321789000016,None,003,007,2021_Jan_21_2324,contrast,2020.2.10,35.03253997496413,
0.5,15,6,126,5,478.7566775999985,None,478.7566775999985,None,478.7566775999985,None,right,5.243338199994469,478.83294370000294,None,478.7566775999985,None,484.10493700000006,None,003,007,2021_Jan_21_2324,contrast,2020.2.10,35.03253997496413,
0.35,15,7,127,2,484.60536219999995,None,484.60536219999995,None,484.60536219999995,None,right,2.4095956000019214,484.68258080000305,None,484.60536219999995,None,487.12605780000376,None,003,007,2021_Jan_21_2324,contrast,2020.2.10,35.03253997496413,
0.55,16,0,128,6,487.62952840000435,None,487.62952840000435,None,487.62952840000435,None,right,1.1259513000040897,487.71227810000346,None,487.62952840000435,None,488.863361300002,None,003,007,2021_Jan_21_2324,contrast,2020.2.10,35.03253997496413,
0.3,16,1,129,1,489.39497969999866,None,489.39497969999866,None,489.39497969999866,None,right,2.4835103000004892,489.47928879999745,None,489.39497969999866,None,491.98956969999927,None,003,007,2021_Jan_21_2324,contrast,2020.2.10,35.03253997496413,
0.6,16,2,130,7,492.51119929999913,None,492.51119929999913,None,492.51119929999913,None,right,1.3635983999993186,492.5863051000015,None,492.51119929999913,None,493.97471289999885,None,003,007,2021_Jan_21_2324,contrast,2020.2.10,35.03253997496413,
0.45,16,3,131,4,494.4795200999979,None,494.4795200999979,None,494.4795200999979,None,right,1.3423215000002529,494.554422600002,None,494.4795200999979,None,495.9236385000004,None,003,007,2021_Jan_21_2324,contrast,2020.2.10,35.03253997496413,
0.4,16,4,132,3,496.4324969000045,None,496.4324969000045,None,496.4324969000045,None,right,1.442324899995583,496.5089063000014,None,496.4324969000045,None,497.97685880000427,None,003,007,2021_Jan_21_2324,contrast,2020.2.10,35.03253997496413,
0.5,16,5,133,5,498.4803742999975,None,498.4803742999975,None,498.4803742999975,None,right,1.340612100000726,498.5583688000006,None,498.4803742999975,None,499.9262400000043,None,003,007,2021_Jan_21_2324,contrast,2020.2.10,35.03253997496413,
0.25,16,6,134,0,500.4310519000028,None,500.4310519000028,None,500.4310519000028,None,right,1.3706246999936411,500.52169940000385,None,500.4310519000028,None,501.9187337000003,None,003,007,2021_Jan_21_2324,contrast,2020.2.10,35.03253997496413,
0.35,16,7,135,2,502.4208957999981,None,502.4208957999981,None,502.4208957999981,None,right,1.8456745000003139,502.49971919999734,None,502.4208957999981,None,504.3716569999997,None,003,007,2021_Jan_21_2324,contrast,2020.2.10,35.03253997496413,
0.3,17,0,136,1,504.89559609999924,None,504.89559609999924,None,504.89559609999924,None,left,3.2372834000052535,504.97195110000393,None,504.89559609999924,None,508.239514900004,None,003,007,2021_Jan_21_2324,contrast,2020.2.10,35.03253997496413,
0.4,17,1,137,3,508.7626894000023,None,508.7626894000023,None,508.7626894000023,None,right,1.1033310999991954,508.8453778000003,None,508.7626894000023,None,509.9769339000013,None,003,007,2021_Jan_21_2324,contrast,2020.2.10,35.03253997496413,
0.25,17,2,138,0,510.48433060000025,None,510.48433060000025,None,510.48433060000025,None,left,1.7090013999986695,510.558768400002,None,510.48433060000025,None,512.2943854000005,None,003,007,2021_Jan_21_2324,contrast,2020.2.10,35.03253997496413,
0.6,17,3,139,7,512.8194249000044,None,512.8194249000044,None,512.8194249000044,None,right,2.371630699999514,512.8957285000033,None,512.8194249000044,None,515.2937553999982,None,003,007,2021_Jan_21_2324,contrast,2020.2.10,35.03253997496413,
0.5,17,4,140,5,515.8038707999985,None,515.8038707999985,None,515.8038707999985,None,right,5.137591999999131,515.8834509999979,None,515.8038707999985,None,521.0471964999997,None,003,007,2021_Jan_21_2324,contrast,2020.2.10,35.03253997496413,
0.45,17,5,141,4,521.5689848000002,None,521.5689848000002,None,521.5689848000002,None,right,1.429303400000208,521.6458328999979,None,521.5689848000002,None,523.1031339000001,None,003,007,2021_Jan_21_2324,contrast,2020.2.10,35.03253997496413,
0.35,17,6,142,2,523.6239525000019,None,523.6239525000019,None,523.6239525000019,None,right,8.947569000003568,523.7007840999977,None,523.6239525000019,None,532.674097799998,None,003,007,2021_Jan_21_2324,contrast,2020.2.10,35.03253997496413,
0.55,17,7,143,6,533.1792765000027,None,533.1792765000027,None,533.1792765000027,None,right,2.1980810000022757,533.2546294000022,None,533.1792765000027,None,535.4784068999979,None,003,007,2021_Jan_21_2324,contrast,2020.2.10,35.03253997496413,
0.4,18,0,144,3,535.9872577000024,None,535.9872577000024,None,535.9872577000024,None,left,2.575248399996781,536.0632259000013,None,535.9872577000024,None,538.6647505000037,None,003,007,2021_Jan_21_2324,contrast,2020.2.10,35.03253997496413,
0.6,18,1,145,7,539.1917175000017,None,539.1917175000017,None,539.1917175000017,None,right,2.0554191000046558,539.2702919999974,None,539.1917175000017,None,541.3506323000001,None,003,007,2021_Jan_21_2324,contrast,2020.2.10,35.03253997496413,
0.3,18,2,146,1,541.8608290000011,None,541.8608290000011,None,541.8608290000011,None,left,3.7720728000058443,541.9407859000021,None,541.8608290000011,None,545.7393498999991,None,003,007,2021_Jan_21_2324,contrast,2020.2.10,35.03253997496413,
0.35,18,3,147,2,546.2544081999986,None,546.2544081999986,None,546.2544081999986,None,left,2.0577154999991762,546.3323464000023,None,546.2544081999986,None,548.4160649000005,None,003,007,2021_Jan_21_2324,contrast,2020.2.10,35.03253997496413,
0.45,18,4,148,4,548.9400166000014,None,548.9400166000014,None,548.9400166000014,None,right,2.4964077999975416,549.0165616999984,None,548.9400166000014,None,551.5387125000016,None,003,007,2021_Jan_21_2324,contrast,2020.2.10,35.03253997496413,
0.5,18,5,149,5,552.0452350000014,None,552.0452350000014,None,552.0452350000014,None,left,2.2700806000066223,552.1257273999981,None,552.0452350000014,None,554.4229605000037,None,003,007,2021_Jan_21_2324,contrast,2020.2.10,35.03253997496413,
0.25,18,6,150,0,554.9456652000044,None,554.9456652000044,None,554.9456652000044,None,left,1.2437722999966354,555.0250916999976,None,554.9456652000044,None,556.2950109999983,None,003,007,2021_Jan_21_2324,contrast,2020.2.10,35.03253997496413,
0.55,18,7,151,6,556.7997585000012,None,556.7997585000012,None,556.7997585000012,None,right,2.5073487000045134,556.8739852000035,None,556.7997585000012,None,559.4070003999987,None,003,007,2021_Jan_21_2324,contrast,2020.2.10,35.03253997496413,
0.25,19,0,152,0,559.9283928999976,None,559.9283928999976,None,559.9283928999976,None,left,2.456569199996011,560.0039300000026,None,559.9283928999976,None,562.4871972000001,None,003,007,2021_Jan_21_2324,contrast,2020.2.10,35.03253997496413,
0.6,19,1,153,7,563.0111906999991,None,563.0111906999991,None,563.0111906999991,None,right,2.131885399998282,563.0878739,None,563.0111906999991,None,565.2461039000009,None,003,007,2021_Jan_21_2324,contrast,2020.2.10,35.03253997496413,
0.5,19,2,154,5,565.7713466000023,None,565.7713466000023,None,565.7713466000023,None,right,2.050300099996093,565.8523165000042,None,565.7713466000023,None,567.9280744000025,None,003,007,2021_Jan_21_2324,contrast,2020.2.10,35.03253997496413,
0.55,19,3,155,6,568.4440823000004,None,568.4440823000004,None,568.4440823000004,None,right,1.4538692999994964,568.5190915000021,None,568.4440823000004,None,570.0005119000016,None,003,007,2021_Jan_21_2324,contrast,2020.2.10,35.03253997496413,
0.45,19,4,156,4,570.5038191000021,None,570.5038191000021,None,570.5038191000021,None,right,3.7493967000045814,570.578083700002,None,570.5038191000021,None,574.3546599000001,None,003,007,2021_Jan_21_2324,contrast,2020.2.10,35.03253997496413,
0.35,19,5,157,2,574.8763981999982,None,574.8763981999982,None,574.8763981999982,None,right,3.388577300000179,574.9529258000002,None,574.8763981999982,None,578.3748406999985,None,003,007,2021_Jan_21_2324,contrast,2020.2.10,35.03253997496413,
0.4,19,6,158,3,578.8936777000017,None,578.8936777000017,None,578.8936777000017,None,right,2.566721700000926,578.9686149000008,None,578.8936777000017,None,581.5626827999986,None,003,007,2021_Jan_21_2324,contrast,2020.2.10,35.03253997496413,
0.3,19,7,159,1,582.0642693000009,None,582.0642693000009,None,582.0642693000009,None,right,2.445785400006571,582.1485930000017,None,582.0642693000009,None,584.6196803000021,None,003,007,2021_Jan_21_2324,contrast,2020.2.10,35.03253997496413,
0.45,20,0,160,4,585.1453140999984,None,585.1453140999984,None,585.1453140999984,None,left,2.041983999995864,585.2209140000014,None,585.1453140999984,None,587.2891762000036,None,003,007,2021_Jan_21_2324,contrast,2020.2.10,35.03253997496413,
0.35,20,1,161,2,587.8209070999983,None,587.8209070999983,None,587.8209070999983,None,left,2.622966599999927,587.9022523999993,None,587.8209070999983,None,590.5541774999983,None,003,007,2021_Jan_21_2324,contrast,2020.2.10,35.03253997496413,
0.6,20,2,162,7,591.0570988,None,591.0570988,None,591.0570988,None,right,2.020028099999763,591.1445257999985,None,591.0570988,None,593.1942474999996,None,003,007,2021_Jan_21_2324,contrast,2020.2.10,35.03253997496413,
0.5,20,3,163,5,593.6977848999995,None,593.6977848999995,None,593.6977848999995,None,right,1.9907874999989872,593.773498999999,None,593.6977848999995,None,595.7894571000033,None,003,007,2021_Jan_21_2324,contrast,2020.2.10,35.03253997496413,
0.55,20,4,164,6,596.3030536999977,None,596.3030536999977,None,596.3030536999977,None,right,2.6291320999953314,596.379639200004,None,596.3030536999977,None,599.0365201999994,None,003,007,2021_Jan_21_2324,contrast,2020.2.10,35.03253997496413,
0.4,20,5,165,3,599.5530887000023,None,599.5530887000023,None,599.5530887000023,None,right,1.2733322999993106,599.6304952000028,None,599.5530887000023,None,600.9298087000025,None,003,007,2021_Jan_21_2324,contrast,2020.2.10,35.03253997496413,
0.3,20,6,166,1,601.4385369999982,None,601.4385369999982,None,601.4385369999982,None,right,1.3838665000002948,601.5143369000034,None,601.4385369999982,None,602.9246864999986,None,003,007,2021_Jan_21_2324,contrast,2020.2.10,35.03253997496413,
0.25,20,7,167,0,603.4339705999992,None,603.4339705999992,None,603.4339705999992,None,left,1.7014713999960804,603.5102951999979,None,603.4339705999992,None,605.2432005000046,None,003,007,2021_Jan_21_2324,contrast,2020.2.10,35.03253997496413,
0.45,21,0,168,4,605.7640385000013,None,605.7640385000013,None,605.7640385000013,None,right,2.4086181999955443,605.8528351000023,None,605.7640385000013,None,608.2872547999978,None,003,007,2021_Jan_21_2324,contrast,2020.2.10,35.03253997496413,
0.5,21,1,169,5,608.8148552000021,None,608.8148552000021,None,608.8148552000021,None,right,3.324848300006124,608.8893599000039,None,608.8148552000021,None,612.2411346000044,None,003,007,2021_Jan_21_2324,contrast,2020.2.10,35.03253997496413,
0.4,21,2,170,3,612.747023400003,None,612.747023400003,None,612.747023400003,None,right,2.0865694000021904,612.8262626000032,None,612.747023400003,None,614.9402000000009,None,003,007,2021_Jan_21_2324,contrast,2020.2.10,35.03253997496413,
0.25,21,3,171,0,615.4571925000018,None,615.4571925000018,None,615.4571925000018,None,right,2.3598983000047156,615.5443597000012,None,615.4571925000018,None,617.9300108999996,None,003,007,2021_Jan_21_2324,contrast,2020.2.10,35.03253997496413,
0.35,21,4,172,2,618.4463311000036,None,618.4463311000036,None,618.4463311000036,None,left,0.9505419999986771,618.5211147000045,None,618.4463311000036,None,619.4971423999996,None,003,007,2021_Jan_21_2324,contrast,2020.2.10,35.03253997496413,
0.55,21,5,173,6,620.0069456000019,None,620.0069456000019,None,620.0069456000019,None,right,1.9224260999981198,620.0841232999992,None,620.0069456000019,None,622.033879300001,None,003,007,2021_Jan_21_2324,contrast,2020.2.10,35.03253997496413,
0.3,21,6,174,1,622.5411088000001,None,622.5411088000001,None,622.5411088000001,None,right,1.3445821000059368,622.6263723999982,None,622.5411088000001,None,623.9981608999988,None,003,007,2021_Jan_21_2324,contrast,2020.2.10,35.03253997496413,
0.6,21,7,175,7,624.514424500001,None,624.514424500001,None,624.514424500001,None,right,1.5044704000029014,624.5925841000026,None,624.514424500001,None,626.123847400002,None,003,007,2021_Jan_21_2324,contrast,2020.2.10,35.03253997496413,
0.5,22,0,176,5,626.6408534000038,None,626.6408534000038,None,626.6408534000038,None,right,2.173766899999464,626.7186750000001,None,626.6408534000038,None,628.9187544999986,None,003,007,2021_Jan_21_2324,contrast,2020.2.10,35.03253997496413,
0.55,22,1,177,6,629.4380681000002,None,629.4380681000002,None,629.4380681000002,None,right,3.1260615999999573,629.514155599998,None,629.4380681000002,None,632.6668566999979,None,003,007,2021_Jan_21_2324,contrast,2020.2.10,35.03253997496413,
0.4,22,2,178,3,633.1778518000028,None,633.1778518000028,None,633.1778518000028,None,right,2.0839906000037445,633.2532881999978,None,633.1778518000028,None,635.362224200002,None,003,007,2021_Jan_21_2324,contrast,2020.2.10,35.03253997496413,
0.3,22,3,179,1,635.878209999999,None,635.878209999999,None,635.878209999999,None,right,2.0785137999992003,635.9532675999981,None,635.878209999999,None,638.0579324000028,None,003,007,2021_Jan_21_2324,contrast,2020.2.10,35.03253997496413,
0.45,22,4,180,4,638.5620766000029,None,638.5620766000029,None,638.5620766000029,None,right,1.3186516999994637,638.639773400002,None,638.5620766000029,None,639.984408100001,None,003,007,2021_Jan_21_2324,contrast,2020.2.10,35.03253997496413,
0.25,22,5,181,0,640.4908966999974,None,640.4908966999974,None,640.4908966999974,None,right,1.3354378000003635,640.5672572000003,None,640.4908966999974,None,641.9291899999989,None,003,007,2021_Jan_21_2324,contrast,2020.2.10,35.03253997496413,
0.6,22,6,182,7,642.4391147000024,None,642.4391147000024,None,642.4391147000024,None,right,1.6344824000043445,642.5142983000005,None,642.4391147000024,None,644.1752487000012,None,003,007,2021_Jan_21_2324,contrast,2020.2.10,35.03253997496413,
0.35,22,7,183,2,644.7001587000013,None,644.7001587000013,None,644.7001587000013,None,left,2.9984597000002395,644.7747476999975,None,644.7001587000013,None,647.8001746000045,None,003,007,2021_Jan_21_2324,contrast,2020.2.10,35.03253997496413,
0.3,23,0,184,1,648.3064171000042,None,648.3064171000042,None,648.3064171000042,None,right,1.5811250999977347,648.3819298999988,None,648.3064171000042,None,649.9883403000022,None,003,007,2021_Jan_21_2324,contrast,2020.2.10,35.03253997496413,
0.45,23,1,185,4,650.5039642000011,None,650.5039642000011,None,650.5039642000011,None,right,1.2497806000028504,650.5827514000011,None,650.5039642000011,None,651.861668900001,None,003,007,2021_Jan_21_2324,contrast,2020.2.10,35.03253997496413,
0.55,23,2,186,6,652.3658692999998,None,652.3658692999998,None,652.3658692999998,None,right,1.5201640999948722,652.440670400003,None,652.3658692999998,None,653.9856637000012,None,003,007,2021_Jan_21_2324,contrast,2020.2.10,35.03253997496413,
0.25,23,3,187,0,654.4919780000018,None,654.4919780000018,None,654.4919780000018,None,right,2.194615199994587,654.5655741000046,None,654.4919780000018,None,656.7857350000013,None,003,007,2021_Jan_21_2324,contrast,2020.2.10,35.03253997496413,
0.5,23,4,188,5,657.3131280999987,None,657.3131280999987,None,657.3131280999987,None,right,1.2525725000014063,657.3881793,None,657.3131280999987,None,658.6680385000036,None,003,007,2021_Jan_21_2324,contrast,2020.2.10,35.03253997496413,
0.35,23,5,189,2,659.1700414000043,None,659.1700414000043,None,659.1700414000043,None,right,3.0166454000063823,659.2457430000031,None,659.1700414000043,None,662.289401500002,None,003,007,2021_Jan_21_2324,contrast,2020.2.10,35.03253997496413,
0.4,23,6,190,3,662.7926077999982,None,662.7926077999982,None,662.7926077999982,None,right,2.392142900003819,662.8665490000021,None,662.7926077999982,None,665.2846987999983,None,003,007,2021_Jan_21_2324,contrast,2020.2.10,35.03253997496413,
0.6,23,7,191,7,665.8157111,None,665.8157111,None,665.8157111,None,right,2.111360399998375,665.8986762000022,None,665.8157111,None,668.0385509000007,None,003,007,2021_Jan_21_2324,contrast,2020.2.10,35.03253997496413,
0.35,24,0,192,2,668.5421687000016,None,668.5421687000016,None,668.5421687000016,None,right,5.091360700003861,668.6254995000018,None,668.5421687000016,None,673.7436273000021,None,003,007,2021_Jan_21_2324,contrast,2020.2.10,35.03253997496413,
0.3,24,1,193,1,674.2495681000037,None,674.2495681000037,None,674.2495681000037,None,right,1.5143039999966277,674.3325129999976,None,674.2495681000037,None,675.8741640999979,None,003,007,2021_Jan_21_2324,contrast,2020.2.10,35.03253997496413,
0.45,24,2,194,4,676.3959075999992,None,676.3959075999992,None,676.3959075999992,None,left,2.045220899999549,676.4706306999979,None,676.3959075999992,None,678.544452099999,None,003,007,2021_Jan_21_2324,contrast,2020.2.10,35.03253997496413,
0.5,24,3,195,5,679.0566004000029,None,679.0566004000029,None,679.0566004000029,None,right,2.0663494000036735,679.1439492000027,None,679.0566004000029,None,681.2363227999995,None,003,007,2021_Jan_21_2324,contrast,2020.2.10,35.03253997496413,
0.6,24,4,196,7,681.7438655999977,None,681.7438655999977,None,681.7438655999977,None,right,1.0110808000026736,681.8175560999989,None,681.7438655999977,None,682.8541103999996,None,003,007,2021_Jan_21_2324,contrast,2020.2.10,35.03253997496413,
0.55,24,5,197,6,683.3816927999978,None,683.3816927999978,None,683.3816927999978,None,right,1.571271799999522,683.4574814999978,None,683.3816927999978,None,685.0559995999974,None,003,007,2021_Jan_21_2324,contrast,2020.2.10,35.03253997496413,
0.25,24,6,198,0,685.5613989000012,None,685.5613989000012,None,685.5613989000012,None,right,1.068393699999433,685.6368174999989,None,685.5613989000012,None,686.7312157000015,None,003,007,2021_Jan_21_2324,contrast,2020.2.10,35.03253997496413,
0.4,24,7,199,3,687.2473395000015,None,687.2473395000015,None,687.2473395000015,None,right,1.9493605999959982,687.3238945000012,None,687.2473395000015,None,689.3013519999986,None,003,007,2021_Jan_21_2324,contrast,2020.2.10,35.03253997496413,
0.4,25,0,200,3,689.8180685000007,None,689.8180685000007,None,689.8180685000007,None,right,0.617659099996672,689.9067190000023,None,689.8180685000007,None,690.5494986000012,None,003,007,2021_Jan_21_2324,contrast,2020.2.10,35.03253997496413,
0.35,25,1,201,2,691.0746804999981,None,691.0746804999981,None,691.0746804999981,None,right,2.0669426000022213,691.1538198000017,None,691.0746804999981,None,693.2488346999999,None,003,007,2021_Jan_21_2324,contrast,2020.2.10,35.03253997496413,
0.6,25,2,202,7,693.7583945999977,None,693.7583945999977,None,693.7583945999977,None,right,0.9859671000012895,693.8442004999997,None,693.7583945999977,None,694.8560617000003,None,003,007,2021_Jan_21_2324,contrast,2020.2.10,35.03253997496413,
0.45,25,3,203,4,695.3820367999979,None,695.3820367999979,None,695.3820367999979,None,right,1.694164799999271,695.4595338000036,None,695.3820367999979,None,697.1828198999974,None,003,007,2021_Jan_21_2324,contrast,2020.2.10,35.03253997496413,
0.55,25,4,204,6,697.704927499999,None,697.704927499999,None,697.704927499999,None,right,1.1043684000032954,697.787391300004,None,697.704927499999,None,698.9229169999999,None,003,007,2021_Jan_21_2324,contrast,2020.2.10,35.03253997496413,
0.3,25,5,205,1,699.4379001000016,None,699.4379001000016,None,699.4379001000016,None,right,3.2502945000014734,699.5187478999978,None,699.4379001000016,None,702.795573600004,None,003,007,2021_Jan_21_2324,contrast,2020.2.10,35.03253997496413,
0.5,25,6,206,5,703.2960485999974,None,703.2960485999974,None,703.2960485999974,None,right,2.510237499998766,703.3762649000018,None,703.2960485999974,None,705.912386,None,003,007,2021_Jan_21_2324,contrast,2020.2.10,35.03253997496413,
0.25,25,7,207,0,706.4176465000019,None,706.4176465000019,None,706.4176465000019,None,right,1.792869899996731,706.4924215000028,None,706.4176465000019,None,708.3096622999983,None,003,007,2021_Jan_21_2324,contrast,2020.2.10,35.03253997496413,
0.45,26,0,208,4,708.8372638000037,None,708.8372638000037,None,708.8372638000037,None,right,2.037940800000797,708.9144103000035,None,708.8372638000037,None,710.981384200004,None,003,007,2021_Jan_21_2324,contrast,2020.2.10,35.03253997496413,
0.4,26,1,209,3,711.4910255000032,None,711.4910255000032,None,711.4910255000032,None,right,3.6909902000043076,711.5689289000038,None,711.4910255000032,None,715.2861403000024,None,003,007,2021_Jan_21_2324,contrast,2020.2.10,35.03253997496413,
0.55,26,2,210,6,715.8114692999989,None,715.8114692999989,None,715.8114692999989,None,right,2.133385199995246,715.8903937000032,None,715.8114692999989,None,718.0541936000045,None,003,007,2021_Jan_21_2324,contrast,2020.2.10,35.03253997496413,
0.3,26,3,211,1,718.5767186999983,None,718.5767186999983,None,718.5767186999983,None,right,1.4879491000028793,718.6568053999981,None,718.5767186999983,None,720.1697223999981,None,003,007,2021_Jan_21_2324,contrast,2020.2.10,35.03253997496413,
0.5,26,4,212,5,720.6987430000045,None,720.6987430000045,None,720.6987430000045,None,right,0.6855343999995966,720.7733890999989,None,720.6987430000045,None,721.4852998000024,None,003,007,2021_Jan_21_2324,contrast,2020.2.10,35.03253997496413,
0.25,26,5,213,0,721.9925589000013,None,721.9925589000013,None,721.9925589000013,None,right,0.21011140000337036,722.0687134,None,721.9925589000013,None,722.3044508999992,None,003,007,2021_Jan_21_2324,contrast,2020.2.10,35.03253997496413,
0.35,26,6,214,2,722.8344231999981,None,722.8344231999981,None,722.8344231999981,None,right,2.1927652999947895,722.908785100004,None,722.8344231999981,None,725.1279248000028,None,003,007,2021_Jan_21_2324,contrast,2020.2.10,35.03253997496413,
0.6,26,7,215,7,725.6387868999991,None,725.6387868999991,None,725.6387868999991,None,right,1.1291735999984667,725.7138022000036,None,725.6387868999991,None,726.8672656000017,None,003,007,2021_Jan_21_2324,contrast,2020.2.10,35.03253997496413,
0.3,27,0,216,1,727.3717604000012,None,727.3717604000012,None,727.3717604000012,None,right,9.818020500002604,727.4472922000023,None,727.3717604000012,None,737.2920399000031,None,003,007,2021_Jan_21_2324,contrast,2020.2.10,35.03253997496413,
0.25,27,1,217,0,737.7961943000009,None,737.7961943000009,None,737.7961943000009,None,left,2.2569032999963383,737.8810694000022,None,737.7961943000009,None,740.162658600002,None,003,007,2021_Jan_21_2324,contrast,2020.2.10,35.03253997496413,
0.5,27,2,218,5,740.6666194000027,None,740.6666194000027,None,740.6666194000027,None,right,2.409418100003677,740.7515888000016,None,740.6666194000027,None,743.1873603000022,None,003,007,2021_Jan_21_2324,contrast,2020.2.10,35.03253997496413,
0.55,27,3,219,6,743.7058041000018,None,743.7058041000018,None,743.7058041000018,None,right,1.1010539999988396,743.7803440000025,None,743.7058041000018,None,744.9081629000029,None,003,007,2021_Jan_21_2324,contrast,2020.2.10,35.03253997496413,
0.45,27,4,220,4,745.4108956000018,None,745.4108956000018,None,745.4108956000018,None,right,1.5456676000030711,745.4853392999976,None,745.4108956000018,None,747.0566731000035,None,003,007,2021_Jan_21_2324,contrast,2020.2.10,35.03253997496413,
0.4,27,5,221,3,747.5603053999985,None,747.5603053999985,None,747.5603053999985,None,right,2.888199799999711,747.6364987000015,None,747.5603053999985,None,750.5506649999988,None,003,007,2021_Jan_21_2324,contrast,2020.2.10,35.03253997496413,
0.35,27,6,222,2,751.0613141000031,None,751.0613141000031,None,751.0613141000031,None,right,3.1434325000009267,751.1414574000046,None,751.0613141000031,None,754.3105928000041,None,003,007,2021_Jan_21_2324,contrast,2020.2.10,35.03253997496413,
0.6,27,7,223,7,754.8375919999999,None,754.8375919999999,None,754.8375919999999,None,right,2.1699348999973154,754.9127802999974,None,754.8375919999999,None,757.1090890000014,None,003,007,2021_Jan_21_2324,contrast,2020.2.10,35.03253997496413,
0.55,28,0,224,6,757.6269685999978,None,757.6269685999978,None,757.6269685999978,None,right,2.3139261000033002,757.7026463000038,None,757.6269685999978,None,760.0421743000006,None,003,007,2021_Jan_21_2324,contrast,2020.2.10,35.03253997496413,
0.3,28,1,225,1,760.5459480000027,None,760.5459480000027,None,760.5459480000027,None,right,1.3402428000044893,760.6212706000042,None,760.5459480000027,None,761.9884319000012,None,003,007,2021_Jan_21_2324,contrast,2020.2.10,35.03253997496413,
0.6,28,2,226,7,762.5019900000007,None,762.5019900000007,None,762.5019900000007,None,right,1.5111703999937163,762.5767979999982,None,762.5019900000007,None,764.1160582999983,None,003,007,2021_Jan_21_2324,contrast,2020.2.10,35.03253997496413,
0.25,28,3,227,0,764.6355617000045,None,764.6355617000045,None,764.6355617000045,None,left,2.2602131999956327,764.7115974000008,None,764.6355617000045,None,766.995999200004,None,003,007,2021_Jan_21_2324,contrast,2020.2.10,35.03253997496413,
0.4,28,4,228,3,767.5044211000022,None,767.5044211000022,None,767.5044211000022,None,right,1.3304146000009496,767.5802208999994,None,767.5044211000022,None,768.9354304000044,None,003,007,2021_Jan_21_2324,contrast,2020.2.10,35.03253997496413,
0.5,28,5,229,5,769.4436490000044,None,769.4436490000044,None,769.4436490000044,None,right,1.3194820999997319,769.5248519999986,None,769.4436490000044,None,770.8719041999975,None,003,007,2021_Jan_21_2324,contrast,2020.2.10,35.03253997496413,
0.35,28,6,230,2,771.3808720999987,None,771.3808720999987,None,771.3808720999987,None,right,1.5123941999991075,771.4585451999992,None,771.3808720999987,None,772.9970763999991,None,003,007,2021_Jan_21_2324,contrast,2020.2.10,35.03253997496413,
0.45,28,7,231,4,773.520360700004,None,773.520360700004,None,773.520360700004,None,right,1.375402400000894,773.5960348000044,None,773.520360700004,None,774.9979174,None,003,007,2021_Jan_21_2324,contrast,2020.2.10,35.03253997496413,
0.5,29,0,232,5,775.5055050999981,None,775.5055050999981,None,775.5055050999981,None,right,1.3686417999997502,775.5825309000029,None,775.5055050999981,None,776.9770992000012,None,003,007,2021_Jan_21_2324,contrast,2020.2.10,35.03253997496413,
0.45,29,1,233,4,777.4852046999986,None,777.4852046999986,None,777.4852046999986,None,right,1.2716046999994433,777.5618044999974,None,777.4852046999986,None,778.8588229999987,None,003,007,2021_Jan_21_2324,contrast,2020.2.10,35.03253997496413,
0.35,29,2,234,2,779.3662972999991,None,779.3662972999991,None,779.3662972999991,None,right,1.8965917000023182,779.4421210000037,None,779.3662972999991,None,781.3659779000045,None,003,007,2021_Jan_21_2324,contrast,2020.2.10,35.03253997496413,
0.6,29,3,235,7,781.8950279000019,None,781.8950279000019,None,781.8950279000019,None,right,2.2375081999998656,781.9743800000033,None,781.8950279000019,None,784.2377585000031,None,003,007,2021_Jan_21_2324,contrast,2020.2.10,35.03253997496413,
0.25,29,4,236,0,784.7667065000023,None,784.7667065000023,None,784.7667065000023,None,right,2.5546847000005073,784.8467100000016,None,784.7667065000023,None,787.4272585000035,None,003,007,2021_Jan_21_2324,contrast,2020.2.10,35.03253997496413,
0.55,29,5,237,6,787.9365475999984,None,787.9365475999984,None,787.9365475999984,None,right,2.1372260999996797,788.0117453000021,None,787.9365475999984,None,790.1748589000017,None,003,007,2021_Jan_21_2324,contrast,2020.2.10,35.03253997496413,
0.4,29,6,238,3,790.6827593000016,None,790.6827593000016,None,790.6827593000016,None,right,1.0888534000041545,790.7581325000028,None,790.6827593000016,None,791.8761206000017,None,003,007,2021_Jan_21_2324,contrast,2020.2.10,35.03253997496413,
0.3,29,7,239,1,792.3847640999993,None,792.3847640999993,None,792.3847640999993,None,right,1.368268199999875,792.4610601999993,None,792.3847640999993,None,793.8555233000043,None,003,007,2021_Jan_21_2324,contrast,2020.2.10,35.03253997496413,
